,time,acc_X,acc_Y,acc_Z,gyro_X,gyro_Y,gyro_Z,heading
0,0.9772,-0.1856,0.0817,-0.0624,338.93,21.02,5.34,29.46
1,0.9498,-0.2783,0.0646,-0.1274,337.67,31.48,12.12,29.46
2,0.9041,-0.4048,0.0176,-0.1359,343.68,47.27,13.52,28.7
3,0.8109,-0.4346,0.1104,-0.3761,299.23,46.13,36.57,28.7
4,0.7009,-0.5014,0.266,-0.4319,252.58,53.07,34.9,28.7
5,0.7049,-0.3703,0.3544,-0.4903,240.76,20.19,57.99,32.25
6,0.7025,-0.4512,0.4626,-0.2981,226.44,65.29,0.2,32.36
7,0.6578,-0.6043,0.425,-0.147,265.1,97.77,331.74,31.5
8,0.4741,-0.6109,0.4508,-0.4459,207.06,130.77,326.84,34.48
9,0.5008,-0.4216,0.4837,-0.581,206.03,321.64,129.4,34.25
10,0.5808,-0.1846,0.3609,-0.706,274.34,336.27,110.54,34.27
11,0.5613,0.1458,0.2327,-0.7807,356.15,328.17,109.12,33.51
12,0.4309,0.5085,0.1591,-0.7283,74.25,302.83,98.04,30.93
13,0.3674,0.7446,0.0053,-0.5573,111.39,258.86,47.77,30.64
14,0.2199,0.8551,-0.1988,-0.4254,109.16,200.92,344.7,25.53
15,0.1835,0.8809,-0.2869,-0.3287,86.38,190.64,328.15,24.09
16,0.1093,0.909,-0.3111,-0.2548,64.18,182.71,322.99,22.42
17,0.0458,0.9264,-0.3174,-0.1973,46.49,177.47,321.65,23.05
18,0.0045,0.9328,-0.3328,-0.1379,30.17,175.04,320.07,20.76
19,-0.044,0.9361,-0.3362,-0.0934,16.72,171.56,319.87,22.34
20,-0.0917,0.9423,-0.318,-0.0506,4.25,168.17,322.48,20.46
21,-0.1018,0.943,-0.3158,-0.0258,358.2,167.97,323.07,20.98
22,-0.1152,0.9458,-0.2954,-0.0707,7.53,164.92,324.8,21.32
23,-0.1206,0.9545,-0.2431,-0.1239,20.48,162.83,329.87,21.98
24,-0.0922,0.9602,-0.1532,-0.2147,45.18,164.75,338.81,21.89
25,-0.0311,0.9395,-0.1165,-0.3205,73.02,170.47,342.71,22.32
26,-0.0457,0.9166,-0.095,-0.3858,88.61,167.33,342.98,21.21
27,0.0706,0.8596,-0.018,-0.5057,121.38,192.18,4.75,22.12
28,0.1868,0.6821,0.0747,-0.7031,137.23,279.22,89.97,21.47
29,0.0879,0.5317,0.2249,-0.8118,110.91,306.01,137.66,23.47
30,-0.1077,0.4317,-0.0979,-0.8902,96.74,23.73,204.58,24.39
31,-0.1735,0.4394,-0.0751,-0.8782,96.44,25.26,213.8,20.8
32,-0.2611,0.4184,0.0058,-0.8699,93.94,17.78,221.19,22.52
33,-0.3353,0.3345,0.0841,-0.8767,80.02,5.76,223.95,23.42
34,-0.336,0.274,0.0647,-0.8988,64.83,4.61,222.33,23.38
35,-0.3679,0.1742,0.0395,-0.9125,40.62,3.43,224.53,23.8
36,-0.4775,0.0778,0.0641,-0.8728,22.73,357.8,237.15,21.29
37,-0.5681,0.0493,0.1139,-0.8135,24.21,352.4,249.04,24.54
38,-0.628,0.0776,0.145,-0.7606,34.95,352.58,257.95,23.18
39,-0.6759,0.0483,0.1795,-0.7131,36.31,348.43,265.08,23.53
40,-0.7153,0.0056,0.19,-0.6725,32.45,345.06,271.4,26.01
41,-0.7245,0.0309,0.2028,-0.658,39.09,346.36,273.15,25.06
42,-0.6875,0.1035,0.2538,-0.6724,58.45,346.82,267.82,24.47
43,-0.6329,0.1358,0.2693,-0.713,64.63,345.46,258.95,24.8
44,-0.5792,0.1799,0.2957,-0.7381,74.9,343.3,250.55,24.25
45,-0.4929,0.2698,0.3618,-0.7439,98.58,335.32,235.59,22.85
46,-0.4048,0.3564,0.4308,-0.7236,119.64,318.23,213.69,22.23
47,-0.3673,0.3885,0.4452,-0.7183,124.55,310.41,202.98,21.8
48,-0.2943,0.4402,0.4966,-0.6878,127.74,285.72,175.8,23.29
49,-0.2511,0.5019,0.5108,-0.6512,131.08,266.44,153.35,23.29
50,-0.278,0.5344,0.5198,-0.6057,138.92,251.46,141.43,21.23
51,-0.1827,0.5564,0.5463,-0.5988,119.99,244.39,128.91,23.15
52,-0.1547,0.4969,0.5621,-0.6428,108.73,257.53,141.87,22.43
53,-0.456,0.4603,0.4763,-0.5944,157.98,309.95,212.9,22.29
54,-0.7213,0.3715,0.3544,-0.465,117.88,23.57,307.83,24.92
55,-0.9348,0.2089,0.1591,-0.2391,46.83,20.05,335.51,24.33
56,-0.9867,0.1236,0.1049,0.0156,23.44,14.62,3.32,23.84
57,-0.9535,0.299,0.0252,0.0271,3.66,34.88,3.83,23.8
58,-0.8337,0.5496,-0.0162,0.0511,350.45,66.63,3.88,26.17
59,-0.7995,0.5782,-0.1204,0.1098,322.74,71.39,2.2,24.34
60,-0.8121,0.5515,-0.1593,-0.1043,343.47,69.85,339.59,23.18
61,-0.7595,0.5143,-0.1538,-0.3675,16.6,64.65,313.62,18.0
62,-0.6964,0.474,-0.178,-0.5086,27.09,59.91,295.55,14.95
63,-0.6663,0.5266,-0.1866,-0.4938,31.5,67.02,297.38,14.04
64,-0.5292,0.7168,-0.0082,-0.454,79.91,92.07,320.04,14.43
65,-0.3074,0.8072,0.1989,-0.4631,120.88,140.77,4.22,16.31
66,-0.3584,0.7759,0.1925,-0.4821,124.78,126.9,354.2,14.63
67,-0.2681,0.7395,0.006,-0.6175,132.81,103.55,306.39,15.88
68,-0.261,0.6198,-0.077,-0.7361,121.44,63.28,258.73,15.0
69,-0.2853,0.431,-0.1584,-0.8413,78.8,41.54,232.93,13.88
70,-0.2495,0.4341,-0.2084,-0.8402,77.42,46.59,230.28,14.15
71,-0.161,0.4027,-0.1795,-0.883,81.59,36.16,214.51,14.46
72,-0.1404,0.5237,-0.2531,-0.8012,100.37,59.68,229.95,12.43
73,0.0016,0.5352,-0.1279,-0.835,126.8,28.24,197.45,12.38
74,0.0763,0.5104,0.008,-0.8565,121.64,349.18,163.46,10.01
75,0.0655,0.543,0.0363,-0.8364,129.26,342.07,159.65,10.36
76,-0.054,0.5572,-0.0522,-0.827,132.69,21.4,201.55,12.18
77,-0.2417,0.2368,-0.1493,-0.9291,43.17,24.92,213.99,11.49
78,-0.3746,0.2192,-0.1943,-0.8797,27.78,31.41,230.05,10.77
79,-0.458,0.1034,-0.1954,-0.861,359.9,25.54,236.01,13.39
80,-0.5005,0.0054,-0.2162,-0.8383,336.06,22.09,239.34,13.45
81,-0.4072,-0.1862,-0.2312,-0.8637,298.67,16.74,225.86,15.43
82,-0.4079,-0.2385,-0.1755,-0.8637,292.55,7.51,228.28,12.05
83,-0.3958,-0.2125,-0.1213,-0.8851,303.63,3.02,227.43,11.72
84,-0.3881,-0.2004,-0.1491,-0.8871,303.77,7.1,225.48,12.35
85,-0.381,-0.1955,-0.1767,-0.8862,302.48,10.8,223.75,13.52
86,-0.3672,-0.3016,-0.1661,-0.864,279.93,4.91,224.26,12.83
87,-0.3217,-0.3366,-0.2901,-0.836,262.9,23.93,211.18,13.17
88,-0.3191,-0.3544,-0.3931,-0.7861,252.17,41.71,202.26,11.54
89,-0.3349,-0.4513,-0.3723,-0.7387,227.31,38.13,203.31,10.95
90,-0.3325,-0.4648,-0.3788,-0.728,223.56,40.78,200.83,11.9
91,-0.357,-0.4482,-0.3964,-0.7174,224.37,41.2,204.55,12.53
92,-0.3852,-0.4518,-0.3579,-0.7207,224.06,26.57,218.16,13.23
93,-0.3298,-0.5619,-0.4037,-0.6423,197.73,73.92,168.76,13.71
94,-0.1481,-0.4651,-0.634,-0.5998,263.56,110.8,141.79,13.71
95,-0.1703,-0.4554,-0.6587,-0.5742,263.27,115.17,142.51,9.77
96,-0.0903,-0.5348,-0.8319,-0.1169,328.04,174.15,115.35,12.4
97,0.0128,-0.3448,-0.8722,0.3468,30.31,218.14,142.12,8.73
98,0.2161,0.017,-0.9315,0.2919,46.25,216.82,189.89,3.4
99,0.2848,0.07,-0.9149,0.2774,57.68,218.67,199.06,5.66
100,0.3052,-0.0021,-0.9265,0.2199,69.02,209.53,189.1,8.42
101,0.4387,-0.038,-0.8935,0.0884,104.49,191.75,180.9,6.95
102,0.4864,-0.0381,-0.8713,0.0534,116.78,186.12,178.41,9.61
103,0.5164,-0.0598,-0.8541,-0.0183,123.25,168.71,165.24,10.08
104,0.5986,-0.0711,-0.7847,-0.1448,133.49,127.72,133.82,11.49
105,0.6912,-0.1134,-0.662,-0.2668,117.43,79.15,92.08,10.23
106,0.7473,-0.147,-0.5617,-0.323,96.25,60.8,76.11,10.93
107,0.7884,-0.1565,-0.4564,-0.3817,73.77,48.08,68.58,13.75
108,0.8024,-0.1653,-0.4044,-0.4067,61.93,43.85,66.48,12.53
109,0.8078,-0.1653,-0.3797,-0.4194,56.7,41.71,65.87,10.77
110,0.802,-0.1429,-0.3988,-0.4211,62.57,41.4,67.49,13.1
111,0.7941,-0.102,-0.42,-0.4274,70.86,39.75,69.76,12.15
112,0.7958,-0.1074,-0.4037,-0.4383,66.52,38.87,69.72,13.06
113,0.7845,-0.1594,-0.4691,-0.3731,76.19,49.68,69.04,13.08
114,0.8504,0.0091,-0.4005,-0.341,86.85,20.78,52.05,11.88
115,0.8612,0.3924,-0.1638,-0.2783,60.08,317.51,23.91,11.45
116,0.879,0.3485,-0.1518,-0.2877,55.74,323.54,26.9,9.17
117,0.9005,0.289,-0.1573,-0.2842,53.18,331.18,28.08,8.64
118,0.9453,0.2037,-0.1602,-0.1982,45.11,339.62,19.58,10.23
119,0.9747,0.0807,-0.099,-0.1834,25.72,352.87,20.51,9.96
120,0.9293,-0.0091,-0.095,-0.3568,19.59,4.93,42.44,8.06
121,0.7836,-0.3094,-0.1522,-0.5168,350.68,40.12,65.11,12.0
122,0.8016,-0.3061,-0.0234,-0.5131,327.88,32.39,60.55,16.53
123,0.8019,-0.3067,0.1107,-0.5007,302.03,25.82,57.18,16.53
124,0.846,-0.2888,0.1456,-0.4239,301.17,24.78,46.62,18.48
125,0.8846,-0.271,0.172,-0.3382,301.63,24.58,35.36,16.94
126,0.9216,-0.249,0.1757,-0.2403,307.34,24.71,23.36,18.48
127,0.9535,-0.2174,0.1534,-0.1415,318.52,23.38,12.54,18.29
128,0.9702,-0.1865,0.1432,-0.0578,325.15,21.23,3.53,17.96
129,0.9769,-0.1645,0.1356,0.0175,329.96,19.74,355.33,16.38
130,0.9822,-0.1274,0.119,0.0698,335.06,15.87,350.13,15.77
131,0.9835,-0.08,0.0956,0.131,340.77,10.66,343.93,15.28
132,0.976,-0.0846,0.1081,0.1689,338.98,11.84,339.28,16.63
133,0.9702,-0.0797,0.1184,0.1958,337.09,11.84,335.99,14.8
134,0.9633,-0.0801,0.1297,0.2211,335.23,12.52,332.78,15.62
135,0.9526,-0.1045,0.151,0.2426,332.59,16.28,329.46,15.42
136,0.9463,-0.1216,0.144,0.2627,335.91,18.22,327.04,14.45
137,0.9469,-0.1173,0.1398,0.2646,336.6,17.6,326.95,15.69
138,0.9434,-0.1479,0.1673,0.245,331.84,21.86,328.15,15.12
139,0.9354,-0.1901,0.1864,0.2325,329.83,27.27,328.4,15.69
140,0.9358,-0.2036,0.1956,0.2111,327.46,28.87,330.37,14.78
141,0.9319,-0.2419,0.216,0.1625,322.18,33.42,334.5,15.31
142,0.9249,-0.2747,0.2368,0.1141,315.91,37.34,338.4,16.13
143,0.9146,-0.3103,0.2511,0.0646,310.43,41.37,342.43,17.19
144,0.9058,-0.3337,0.2601,0.0204,305.54,43.78,346.3,16.17
145,0.9111,-0.3184,0.2618,-0.0035,302.72,41.21,349.48,16.88
146,0.9144,-0.2976,0.2732,-0.0272,297.89,38.16,352.43,15.78
147,0.9188,-0.2746,0.2807,-0.0405,294.91,34.87,354.57,17.6
148,0.9239,-0.2401,0.2948,-0.0439,291.1,30.44,355.79,15.93
149,0.9308,-0.1946,0.3072,-0.0382,288.14,24.73,356.57,15.68
150,0.9301,-0.1618,0.328,-0.0336,283.21,20.85,356.81,15.5
151,0.9243,-0.1405,0.3522,-0.0442,276.88,17.79,358.68,15.7
152,0.9211,-0.111,0.37,-0.048,272.37,13.55,0.49,16.89
153,0.9185,-0.0816,0.382,-0.0617,269.23,8.42,4.15,15.7
154,0.9198,-0.0534,0.3824,-0.0698,269.38,3.66,7.16,15.0
155,0.9276,-0.0244,0.367,-0.0655,273.67,359.78,8.16,15.19
156,0.9263,-0.012,0.3714,-0.0619,272.81,358.12,8.39,16.18
157,0.9289,0.0052,0.3663,-0.0542,274.33,356.14,8.19,14.63
158,0.9406,0.0244,0.3332,-0.06,282.8,353.69,9.51,14.42
159,0.946,0.0304,0.318,-0.055,286.5,353.37,8.86,15.05
160,0.9503,0.0234,0.3067,-0.0479,289.0,354.79,7.44,14.18
161,0.9606,0.0228,0.2714,-0.0564,297.5,355.01,8.12,15.69
162,0.9634,0.0197,0.2563,-0.076,301.21,354.94,10.35,15.16
163,0.9578,0.012,0.262,-0.1177,300.13,354.39,15.52,15.91
164,0.9503,0.0311,0.2635,-0.163,301.23,350.42,21.98,16.62
165,0.933,0.0329,0.2835,-0.2193,298.06,347.49,29.94,16.46
166,0.9131,0.0121,0.2887,-0.2877,297.29,347.26,38.57,15.41
167,0.8955,-0.029,0.2612,-0.3592,301.49,351.05,46.06,14.36
168,0.8753,-0.0571,0.2293,-0.4219,306.56,353.99,52.89,16.21
169,0.8426,-0.0924,0.1737,-0.5012,314.66,358.86,61.72,16.49
170,0.806,-0.1365,0.0881,-0.5692,325.4,7.21,69.36,17.13
171,0.7565,-0.1657,0.0247,-0.6322,331.43,13.09,78.13,17.8
172,0.6621,-0.145,-0.098,-0.7287,350.65,19.63,94.68,16.6
173,0.5581,-0.14,-0.128,-0.8078,350.44,21.37,109.82,18.29
174,0.4397,-0.1517,-0.1018,-0.8794,339.58,18.51,125.2,18.49
175,0.3297,-0.1289,-0.1018,-0.9297,340.13,16.17,139.53,19.31
176,0.1999,-0.0852,-0.1296,-0.9675,347.02,16.66,155.7,20.29
177,-0.0018,-0.0172,-0.0731,-0.9972,356.05,8.39,180.06,20.92
178,-0.2277,0.0626,-0.0659,-0.9695,10.49,9.03,206.84,19.41
179,-0.4849,0.1574,-0.1177,-0.8522,17.74,20.94,240.92,20.6
180,-0.6741,0.1954,-0.186,-0.6876,2.06,31.29,269.16,19.45
181,-0.7755,0.2497,-0.1828,-0.5503,359.01,36.05,289.12,22.18
182,-0.8441,0.3816,-0.0928,-0.365,14.0,45.84,316.19,20.68
183,-0.9113,0.3845,-0.0803,-0.1235,354.11,46.19,343.31,21.24
184,-0.94,0.314,-0.1241,0.0492,329.35,36.83,0.86,21.38
185,-0.9313,0.312,-0.1028,0.1574,326.33,34.99,13.85,22.61
186,-0.9021,0.3107,-0.0777,0.2891,322.69,32.97,29.97,19.34
187,-0.9339,0.1407,-0.0115,0.3284,346.93,14.89,37.89,20.34
188,-0.9532,0.0207,0.0977,0.2854,20.08,5.55,33.83,19.59
189,-0.9223,0.0797,0.1455,0.3492,24.56,14.74,43.07,18.19
190,-0.892,0.047,0.2058,0.3998,38.49,15.26,50.89,18.31
191,-0.7099,0.4875,0.4248,0.2789,38.68,79.99,59.17,17.86
192,0.0143,0.8335,0.5359,0.1331,332.55,172.97,66.31,22.59
193,0.1027,0.801,0.5888,-0.0355,352.66,191.93,72.25,25.21
194,0.0516,0.8356,0.5469,-0.0007,353.67,184.99,66.27,31.31
195,-0.0424,0.8256,0.5496,0.1202,342.53,168.21,68.21,31.16
196,-0.1592,0.7545,0.6211,0.1399,358.48,155.54,79.08,32.71
197,-0.2866,0.71,0.5799,0.2784,352.79,133.01,80.05,35.07
198,-0.4538,0.5913,0.56,0.3617,9.23,109.12,83.6,33.16
199,-0.6544,0.4553,0.5785,0.1725,73.75,96.03,70.19,35.43
200,-0.7591,0.3008,0.5674,-0.1064,135.48,62.48,28.34,30.48
201,-0.8185,0.2027,0.5102,-0.1694,129.33,21.79,350.5,34.15
202,-0.8316,0.2282,0.4746,-0.1765,120.89,25.46,351.02,31.91
203,-0.8514,0.194,0.4545,-0.1755,114.73,18.47,346.88,30.61
204,-0.8745,0.2565,0.1265,-0.3915,49.93,22.68,316.86,32.94
205,-0.7791,0.337,-0.0476,-0.5265,32.61,36.82,297.36,30.01
206,-0.8019,0.3978,-0.0839,-0.4378,24.68,46.74,308.09,31.59
207,-0.8282,0.4011,-0.1323,-0.3683,8.75,49.83,314.09,25.29
208,-0.8525,0.38,-0.1927,-0.3028,348.7,50.2,318.24,25.55
209,-0.9186,0.2778,-0.1818,-0.2143,335.18,37.04,329.56,24.79
210,-0.9312,0.2143,-0.2402,-0.1713,316.1,31.26,332.94,22.29
211,-0.9394,0.139,-0.2894,-0.12,298.61,22.6,339.17,22.46
212,-0.9857,0.0601,-0.1565,0.0173,323.81,6.82,0.93,23.11
213,-0.9818,-0.0592,-0.0705,0.1661,346.36,351.92,19.69,23.28
214,-0.9586,-0.1661,0.0222,0.2304,13.68,341.91,25.94,25.37
215,-0.9353,-0.2559,-0.1376,0.2021,342.29,327.26,27.0,23.9
216,-0.8881,-0.3006,-0.2855,0.1984,314.35,315.4,34.65,22.7
217,-0.8097,-0.4084,-0.3974,0.1403,296.12,294.39,40.56,23.43
218,-0.7,-0.419,-0.5298,0.2317,293.6,276.0,66.68,24.71
219,-0.4762,-0.4098,-0.6651,0.4036,324.77,256.61,102.77,21.76
220,-0.3818,-0.4618,-0.6717,0.4356,347.3,250.67,106.48,23.9
221,-0.3245,-0.4721,-0.7316,0.3695,345.54,238.64,110.27,19.51
222,-0.3354,-0.4663,-0.759,0.3065,334.19,232.96,110.43,21.45
223,-0.3432,-0.4557,-0.7825,0.2497,323.95,227.72,111.54,22.03
224,-0.3728,-0.4509,-0.7719,0.2488,318.88,230.29,109.69,21.92
225,-0.4655,-0.3898,-0.7826,0.1378,283.21,227.58,109.59,20.75
226,-0.5012,-0.3305,-0.794,0.0958,265.8,225.25,114.22,22.21
227,-0.6382,-0.1565,-0.7531,-0.0318,207.55,219.62,124.96,24.15
228,-0.656,-0.1914,-0.7273,-0.0633,203.8,230.48,108.66,24.73
229,-0.8077,-0.2625,-0.5224,-0.0758,235.83,312.54,18.92,25.27
230,-0.8667,-0.314,-0.3788,-0.0821,269.84,316.94,7.78,21.07
231,-0.8773,-0.306,-0.3594,-0.0869,273.72,319.44,5.3,22.59
232,-0.9054,-0.3514,-0.1743,0.1621,336.72,314.97,25.14,24.79
233,-0.8164,-0.4764,-0.2794,0.1688,325.63,294.09,34.55,25.04
234,-0.7122,-0.6586,-0.2146,0.1133,342.0,272.34,26.72,22.57
235,-0.6024,-0.7725,-0.1628,0.1178,358.38,255.73,23.17,20.36
236,-0.5919,-0.7794,-0.1611,0.1277,0.96,254.53,23.72,19.53
237,-0.6448,-0.7397,-0.1816,0.0639,343.95,260.68,20.77,17.93
238,-0.6311,-0.741,-0.2262,0.038,333.5,258.12,23.19,17.73
239,-0.6487,-0.7118,-0.2676,0.0306,324.64,260.54,26.2,17.27
240,-0.6602,-0.6784,-0.3205,0.0339,315.69,262.18,31.2,18.01
241,-0.6387,-0.6786,-0.3588,0.0529,314.53,258.84,36.97,21.49
242,-0.6094,-0.6703,-0.4168,0.0748,311.89,254.36,45.38,20.08
243,-0.6402,-0.6447,-0.4043,0.1049,315.04,260.14,45.2,19.24
244,-0.7141,-0.5887,-0.3712,0.0757,307.67,272.0,37.41,20.15
245,-0.7524,-0.5883,-0.278,0.1024,325.34,279.23,30.27,20.92
246,-0.7628,-0.6112,-0.177,0.1152,345.15,281.05,23.29,19.55
247,-0.7785,-0.6136,-0.0817,0.1041,0.06,283.51,15.21,20.21
248,-0.7699,-0.628,-0.0641,0.0939,2.19,281.72,13.01,21.84
249,-0.7693,-0.6276,-0.0647,0.1005,3.05,281.77,13.65,19.93
250,-0.7743,-0.6211,-0.078,0.0927,359.34,282.49,13.91,20.21
251,-0.7779,-0.6193,-0.0784,0.0717,356.2,282.75,12.05,17.79
252,-0.8051,-0.5887,-0.0523,0.0496,357.05,287.54,8.13,17.3
253,-0.8749,-0.482,-0.0463,0.0095,351.77,302.17,3.52,18.51
254,-0.9195,-0.3847,-0.079,-0.0186,341.64,314.47,1.54,17.07
255,-0.9302,-0.358,-0.0694,-0.0414,341.74,318.02,358.41,22.89
256,-0.9429,-0.3157,-0.0767,-0.0726,338.04,323.47,354.82,19.1
257,-0.9516,-0.2671,-0.1082,-0.1066,329.51,329.8,351.35,20.15
258,-0.9538,-0.2413,-0.1247,-0.1286,325.08,333.33,348.81,18.98
259,-0.9593,-0.2108,-0.1342,-0.1318,323.52,337.13,348.08,19.87
260,-0.9711,-0.1515,-0.1399,-0.12,324.12,344.09,348.44,19.93
261,-0.9985,-0.0387,0.0339,-0.0178,7.62,355.49,357.81,18.92
262,-0.9809,-0.01,0.0961,-0.169,21.34,356.96,340.16,24.22
263,-0.9241,0.0422,0.0854,-0.3701,21.8,0.87,316.42,21.76
264,-0.9218,0.0802,0.0645,-0.3737,20.61,5.81,316.39,19.03
265,-0.9197,0.1011,0.0116,-0.3793,11.25,10.26,315.68,19.97
266,-0.9217,0.0974,-0.0257,-0.3745,2.93,11.47,315.92,18.18
267,-0.9262,0.0807,-0.0822,-0.359,349.17,12.09,317.05,17.16
268,-0.9171,0.0188,-0.1605,-0.3644,327.39,9.08,315.35,18.04
269,-0.9029,-0.0232,-0.2444,-0.3528,305.51,8.45,315.27,18.69
270,-0.8704,-0.11,-0.3372,-0.3415,277.07,2.98,316.02,16.62
271,-0.8315,-0.1393,-0.4152,-0.3418,256.43,4.85,312.95,16.45
272,-0.8094,-0.1132,-0.4583,-0.3493,249.64,13.87,306.05,16.2
273,-0.7999,-0.1276,-0.4787,-0.3388,243.1,13.28,306.64,14.88
274,-0.8107,-0.119,-0.4603,-0.3415,248.27,12.5,307.67,14.23
275,-0.814,-0.0885,-0.4443,-0.3635,256.05,16.88,303.61,15.81
276,-0.8016,-0.0879,-0.461,-0.3704,252.94,19.71,300.38,17.21
277,-0.796,-0.044,-0.4606,-0.3902,259.71,26.85,295.03,17.0
278,-0.8156,-0.0687,-0.4348,-0.3756,260.92,19.3,301.57,14.46
279,-0.8198,-0.0322,-0.4196,-0.3883,269.03,22.91,299.6,15.27
280,-0.8346,0.017,-0.3882,-0.3904,281.2,25.41,300.63,16.05
281,-0.8606,0.0948,-0.3239,-0.3815,301.95,27.98,304.8,15.54
282,-0.9222,0.1668,-0.2302,-0.2621,320.59,27.06,323.48,17.29
283,-0.9759,0.0692,-0.1714,-0.1155,322.84,10.62,344.76,21.23
284,-0.9776,0.0422,-0.2051,-0.0206,312.93,5.7,356.4,18.5
285,-0.9583,0.0776,-0.25,0.1148,300.4,6.05,12.06,19.15
286,-0.9601,0.0599,-0.2384,0.1334,303.44,3.35,14.98,21.65
287,-0.9522,0.0843,-0.2571,0.1419,298.21,5.86,15.33,23.73
288,-0.9375,0.1325,-0.2423,0.2119,298.61,9.76,22.79,22.72
289,-0.9552,0.1188,-0.2389,0.1282,301.73,10.93,12.44,25.98
290,-0.9604,0.1129,-0.2534,0.0252,301.0,13.56,359.42,21.72
291,-0.9583,0.1093,-0.2583,-0.0558,302.27,15.79,349.24,20.78
292,-0.9577,0.0984,-0.2373,-0.1296,309.2,16.07,340.94,18.5
293,-0.9595,0.0828,-0.1638,-0.2136,327.59,13.79,332.93,19.41
294,-0.9486,0.0825,-0.2121,-0.2201,317.07,15.58,330.9,15.89
295,-0.9489,0.0803,-0.2267,-0.2044,313.17,15.49,332.46,17.35
296,-0.965,0.0943,-0.2085,-0.128,315.54,14.73,341.98,18.64
297,-0.9683,0.063,-0.1939,-0.1442,318.12,10.98,341.03,19.19
298,-0.968,0.075,-0.1871,-0.1495,320.27,12.35,340.27,18.5
299,-0.969,0.0802,-0.1791,-0.1503,322.31,12.78,340.24,20.15
300,-0.9746,0.08,-0.1483,-0.1473,329.22,11.95,341.19,16.8
301,-0.9729,0.0884,-0.1343,-0.166,333.17,12.87,339.12,19.73
302,-0.9692,0.0986,-0.1283,-0.1856,335.52,14.14,336.79,19.68
303,-0.9331,0.0081,-0.2512,-0.257,304.62,9.38,326.88,16.06
304,-0.9158,-0.0012,-0.249,-0.3152,305.63,10.02,319.59,18.82
305,-0.9112,-0.0111,-0.2638,-0.3161,301.61,9.67,319.22,17.48
306,-0.8956,-0.0408,-0.3064,-0.3199,289.81,8.64,317.95,14.57
307,-0.9039,0.006,-0.2919,-0.3127,296.81,13.12,318.11,14.23
308,-0.9822,0.0916,0.0514,-0.1555,14.87,9.52,342.63,15.06
309,-0.9825,0.1028,0.0017,-0.1551,4.04,11.63,342.26,20.15
310,-0.9694,0.1468,-0.1174,-0.1577,339.11,19.09,339.76,18.77
311,-0.9833,0.0771,0.0062,-0.1647,4.32,8.61,341.15,19.53
312,-0.9761,0.0955,-0.0625,-0.1848,350.05,12.14,338.03,19.64
313,-0.9648,0.1263,-0.1633,-0.1627,328.18,17.97,338.33,20.09
314,-0.9754,0.0613,-0.1143,-0.1782,336.78,9.42,338.34,17.7
315,-0.97,0.0761,-0.1284,-0.192,334.59,11.65,336.31,17.07
316,-0.9673,0.0157,-0.1493,-0.2043,327.19,5.46,335.36,17.09
317,-0.9659,-0.0085,-0.1553,-0.207,324.66,2.88,335.36,17.72
318,-0.9497,0.0239,-0.2278,-0.2135,310.01,9.05,332.65,19.24
319,-0.9568,-0.0552,-0.2123,-0.191,309.41,358.45,337.77,16.6
320,-0.9604,-0.0659,-0.1985,-0.1841,312.16,356.64,339.01,15.22
321,-0.9353,-0.0318,-0.3022,-0.1811,289.53,3.5,336.97,17.12
322,-0.9447,-0.0539,-0.2749,-0.1704,294.94,359.44,339.72,17.16
323,-0.9577,-0.0492,-0.2341,-0.1601,304.69,358.75,341.33,16.31
324,-0.9691,-0.0606,-0.1997,-0.1313,312.48,355.92,345.43,17.64
325,-0.9737,-0.0421,-0.1823,-0.1299,317.06,357.87,345.2,16.74
326,-0.9687,-0.0353,-0.2058,-0.134,311.82,359.16,344.43,17.38
327,-0.9782,-0.0436,-0.1686,-0.1136,320.28,357.13,347.26,15.41
328,-0.9754,-0.0506,-0.1817,-0.1143,317.05,356.48,347.3,16.23
329,-0.9795,-0.0289,-0.1751,-0.0949,319.2,358.58,349.19,18.7
330,-0.967,-0.0791,-0.2272,-0.0834,306.17,352.58,351.92,15.22
331,-0.9457,-0.144,-0.2787,-0.0855,293.02,344.37,354.4,14.86
332,-0.9837,-0.0878,-0.1487,-0.0492,324.93,350.46,355.75,17.86
333,-0.9926,-0.0789,-0.0868,-0.03,339.6,351.16,357.33,16.99
334,-0.9899,-0.1027,-0.0871,-0.0443,339.08,348.52,355.93,17.04
335,-0.9902,-0.1083,-0.067,-0.0575,343.3,347.94,354.24,14.34
336,-0.9794,-0.0969,0.0005,-0.1774,356.17,349.04,339.65,15.03
337,-0.927,-0.1036,-0.0408,-0.3582,342.76,350.52,318.46,15.2
338,-0.9045,-0.1065,-0.1552,-0.3827,317.53,355.45,314.98,13.68
339,-0.9051,-0.1458,-0.2295,-0.327,298.57,352.39,322.36,16.35
340,-0.9369,-0.1305,-0.2461,-0.2113,297.82,350.56,337.21,12.4
341,-0.9519,-0.1019,-0.2811,-0.0673,293.43,349.24,355.14,13.44
342,-0.9511,-0.0526,-0.3031,0.0278,290.0,351.8,5.94,17.38
343,-0.9416,-0.055,-0.3204,0.0883,287.18,348.52,14.5,15.81
344,-0.9439,-0.1208,-0.2755,0.1363,301.7,339.7,21.77,18.97
345,-0.9501,-0.1058,-0.2411,0.1674,309.98,341.88,24.04,17.77
346,-0.9497,-0.0426,-0.192,0.2436,319.76,349.3,30.67,18.5
347,-0.9458,-0.0045,-0.1832,0.2681,319.73,353.47,32.81,17.54
348,-0.9457,-0.0022,-0.1583,0.2839,325.32,354.34,34.28,18.93
349,-0.9294,0.1639,-0.1819,0.2763,309.24,13.06,30.16,20.35
350,-0.9461,0.1389,-0.133,0.2607,322.18,11.8,28.84,20.5
351,-0.9698,0.1169,-0.1392,0.1626,324.12,11.0,17.29,20.92
352,-0.9935,0.081,-0.0786,0.0136,341.77,9.26,0.83,20.76
353,-0.997,0.0525,-0.0557,0.0094,347.12,5.99,0.74,17.33
354,-0.9973,0.0484,-0.0547,0.0048,347.41,5.54,0.24,18.1
355,-0.9987,0.015,-0.048,0.0,349.0,1.73,359.92,17.81
356,-0.9989,0.005,-0.0456,-0.0024,349.54,0.59,359.7,17.45
357,-0.9995,-0.0068,-0.0244,-0.0175,354.38,359.27,358.01,15.5
358,-0.995,-0.0334,-0.0032,-0.0939,358.55,356.22,349.24,17.16
359,-0.9911,-0.0328,-0.0293,-0.1253,352.4,356.69,345.7,17.26
360,-0.9895,-0.0407,-0.0634,-0.1231,344.43,356.24,346.08,15.5
361,-0.9937,-0.0344,-0.066,-0.0838,344.26,356.69,350.59,13.15
362,-0.9939,-0.0068,-0.0676,-0.0872,344.42,359.9,349.98,15.37
363,-0.9941,-0.0154,-0.0703,-0.0809,343.64,358.89,350.77,17.09
364,-0.9937,-0.0442,-0.0673,-0.0784,343.81,355.52,351.3,17.7
365,-0.9923,-0.0745,-0.0597,-0.0786,345.05,351.97,351.47,17.77
366,-0.9862,-0.1429,-0.0223,-0.081,352.31,343.8,351.16,17.83
367,-0.9577,-0.2839,0.0056,-0.0472,358.16,327.02,354.63,16.06
368,-0.9389,-0.3412,0.0443,-0.0125,8.57,319.94,356.92,15.29
369,-0.9134,-0.4029,0.0583,0.0064,12.82,312.28,357.97,15.91
370,-0.8893,-0.4527,-0.0035,0.0645,5.97,306.22,6.78,13.77
371,-0.8856,-0.4519,-0.0357,0.1005,3.17,306.1,12.15,16.38
372,-0.8732,-0.4597,-0.0734,0.1443,0.52,304.51,18.63,15.02
373,-0.8897,-0.4272,-0.0521,0.1521,4.28,309.05,18.39,16.5
374,-0.9198,-0.3574,-0.0223,0.1607,8.48,318.21,18.2,17.87
375,-0.9646,-0.2183,0.0357,0.1436,15.12,335.52,15.29,18.15
376,-0.9849,-0.0529,0.0648,-0.1513,12.82,352.84,342.13,18.43
377,-0.9404,-0.0195,0.1326,-0.3126,27.44,352.93,322.37,15.95
378,-0.8954,0.0153,0.2576,-0.3629,56.37,349.57,313.24,16.62
379,-0.8488,0.1812,0.2265,-0.442,66.01,7.36,307.17,16.74
380,-0.8538,0.2512,0.1949,-0.4123,65.36,18.58,313.94,17.39
381,-0.855,0.2471,0.1978,-0.4107,65.54,18.02,314.02,18.19
382,-0.8618,0.2128,0.1899,-0.4194,60.77,13.91,311.9,16.18
383,-0.8692,0.179,0.1713,-0.4279,53.62,10.62,310.11,14.32
384,-0.8736,0.1747,0.1705,-0.421,52.84,10.41,310.99,16.35
385,-0.8813,0.1648,0.1512,-0.4163,47.61,10.36,311.63,16.91
386,-0.8931,0.1802,0.1235,-0.3933,42.48,13.95,315.1,16.05
387,-0.905,0.2216,0.0895,-0.3521,37.07,20.89,320.93,16.87
388,-0.9117,0.2863,0.0352,-0.2927,26.81,31.03,328.14,16.03
389,-0.9127,0.3434,-0.0527,-0.2153,5.92,40.57,334.55,16.31
390,-0.8966,0.4038,-0.1213,-0.1353,347.57,49.59,339.97,15.17
391,-0.8892,0.4206,-0.1582,-0.0863,335.89,52.45,342.96,15.27
392,-0.9086,0.3804,-0.1605,-0.0622,331.71,47.19,345.97,17.1
393,-0.9316,0.3344,-0.1311,-0.0556,336.09,40.67,348.73,15.78
394,-0.9397,0.3229,-0.0877,-0.0707,346.31,38.58,348.99,14.33
395,-0.9457,0.3104,-0.0631,-0.0729,351.51,36.72,349.77,16.11
396,-0.9553,0.2912,-0.0387,0.0332,349.29,33.8,2.35,15.41
397,-0.9378,0.3014,0.0886,0.148,8.84,36.39,19.39,16.46
398,-0.9352,0.2828,0.1836,0.1084,32.78,36.35,18.63,18.24
399,-0.9384,0.2918,0.1679,0.0781,31.28,36.58,14.71,21.28
400,-0.9206,0.3432,0.1782,0.0551,33.75,42.91,13.52,20.11
401,-0.9259,0.3573,0.1048,-0.064,27.74,41.89,357.43,19.53
402,-0.8804,0.4087,0.0127,-0.2401,25.26,46.99,334.99,16.64
403,-0.8883,0.4103,-0.0151,-0.2057,16.32,47.96,337.56,15.29
404,-0.8868,0.3958,-0.0291,-0.2367,15.62,46.26,333.44,15.53
405,-0.8927,0.384,-0.029,-0.2342,14.71,44.83,333.64,15.64
406,-0.9048,0.3718,-0.0882,-0.1879,357.72,44.92,336.07,14.09
407,-0.9071,0.353,-0.0885,-0.2115,358.72,42.67,333.5,15.95
408,-0.9114,0.3483,-0.0524,-0.2127,6.04,41.15,334.86,15.78
409,-0.9019,0.3523,-0.1254,-0.216,351.51,43.76,331.37,20.13
410,-0.9093,0.3386,-0.1218,-0.2092,350.85,41.97,332.33,15.78
411,-0.9169,0.3212,-0.0926,-0.2179,356.58,39.03,332.66,14.69
412,-0.9138,0.3314,-0.1242,-0.1994,349.11,41.15,333.33,16.38
413,-0.9225,0.3132,-0.1024,-0.2011,352.79,38.33,334.15,18.24
414,-0.9261,0.3037,-0.1038,-0.1983,351.76,37.24,334.44,17.29
415,-0.9481,0.2311,-0.1216,-0.1815,343.12,29.19,336.12,17.12
416,-0.9714,0.1205,-0.0303,-0.2025,358.85,14.26,336.38,15.67
417,-0.9743,0.0159,0.0624,-0.2161,14.75,0.23,335.01,15.41
418,-0.9683,-0.0285,0.0675,-0.2389,13.44,354.95,331.98,15.06
419,-0.9671,-0.0398,0.0699,-0.2411,13.33,353.6,331.63,16.6
420,-0.9682,-0.0462,0.0539,-0.2397,9.44,353.36,331.91,15.49
421,-0.9674,-0.0653,0.0642,-0.2363,10.71,350.94,332.12,14.71
422,-0.9676,-0.0704,0.0664,-0.2332,10.99,350.32,332.43,15.29
423,-0.9709,-0.0695,0.0647,-0.2198,10.92,350.55,334.04,17.94
424,-0.9717,-0.0729,0.064,-0.2156,10.66,350.21,334.53,15.08
425,-0.9723,-0.071,0.0584,-0.2147,9.53,350.58,334.7,15.92
426,-0.9728,-0.0813,0.0795,-0.202,13.99,348.95,335.86,17.03
427,-0.9716,-0.0876,0.0642,-0.2102,10.1,348.58,335.08,16.31
428,-0.9708,-0.1008,0.118,-0.1831,22.17,345.91,337.27,13.89
429,-0.966,-0.1216,0.1051,-0.2025,17.69,343.68,335.05,15.95
430,-0.9642,-0.1261,0.1377,-0.1883,25.19,342.4,335.94,14.56
431,-0.9651,-0.1287,0.1042,-0.2028,17.13,342.9,334.98,12.99
432,-0.9693,-0.1195,0.0027,-0.2151,354.71,346.52,335.29,14.82
433,-0.9664,-0.1373,0.0015,-0.2174,353.48,344.54,335.09,12.25
434,-0.9606,-0.1691,-0.0022,-0.2205,350.95,341.04,334.9,13.45
435,-0.95,-0.2124,0.0118,-0.2284,351.44,335.78,333.89,14.96
436,-0.9377,-0.2554,0.0281,-0.2339,352.34,330.45,333.0,14.46
437,-0.9314,-0.275,0.0397,-0.235,353.65,327.87,332.59,14.32
438,-0.9346,-0.2655,0.0657,-0.2274,0.23,328.25,332.62,13.42
439,-0.9615,-0.1469,0.096,-0.2116,14.07,340.99,333.99,14.32
440,-0.9733,0.0273,0.0786,-0.214,18.95,1.14,335.29,11.55
441,-0.943,0.0912,0.1319,-0.2917,35.14,5.72,326.5,14.22
442,-0.9204,0.1278,0.1315,-0.3453,38.58,8.8,320.37,15.54
443,-0.9107,0.1569,0.1381,-0.3563,42.6,11.61,319.46,16.48
444,-0.9051,0.1912,0.1389,-0.3535,45.49,15.6,320.48,16.75
445,-0.8961,0.2166,0.1576,-0.3539,51.67,17.9,321.04,15.97
446,-0.8917,0.2136,0.1893,-0.3513,58.38,16.5,321.31,15.84
447,-0.8952,0.1963,0.1695,-0.3625,52.94,14.79,319.41,16.72
448,-0.9003,0.1683,0.1854,-0.356,53.96,11.07,319.51,16.86
449,-0.9026,0.1572,0.206,-0.3438,57.37,9.33,320.68,15.17
450,-0.9089,0.143,0.181,-0.3475,50.73,8.54,320.07,16.72
451,-0.9133,0.1527,0.1828,-0.3305,51.54,10.11,322.53,16.18
452,-0.8545,0.4719,0.1484,-0.1586,47.57,56.08,351.78,16.59
453,-0.8165,0.5426,0.1834,-0.0724,44.42,68.19,5.01,17.08
454,-0.8551,0.451,0.2514,-0.0472,56.39,58.02,9.54,20.27
455,-0.8922,0.1824,0.4093,-0.0554,97.29,25.09,4.38,20.38
456,-0.9172,0.0712,0.3872,-0.0611,91.94,6.88,355.3,24.95
457,-0.9177,-0.0148,0.3892,-0.0782,90.8,352.8,347.25,22.21
458,-0.8826,0.0046,0.4696,0.0231,111.92,3.06,4.63,23.51
459,-0.9449,0.0212,0.3268,0.003,76.25,3.06,1.42,22.45
460,-0.9154,-0.046,0.3968,-0.05,92.42,349.69,349.33,24.44
461,-0.8133,0.1502,0.4367,-0.354,109.5,353.56,309.62,23.25
462,-0.7003,0.237,0.469,-0.4832,124.71,344.84,281.58,18.06
463,-0.6915,0.2697,0.4475,-0.4989,125.22,350.81,282.79,16.21
464,-0.6998,0.2971,0.429,-0.4879,125.82,359.65,290.01,16.34
465,-0.7055,0.3184,0.4119,-0.4809,125.09,6.61,295.45,17.35
466,-0.7119,0.3058,0.3997,-0.4899,120.61,5.06,293.88,16.55
467,-0.7103,0.2979,0.406,-0.4919,120.87,2.75,292.19,15.63
468,-0.7085,0.258,0.4075,-0.5151,114.98,354.21,284.79,15.95
469,-0.7049,0.2224,0.4077,-0.5361,108.82,347.74,279.17,16.45
470,-0.6983,0.2192,0.421,-0.5358,110.74,345.21,277.22,15.65
471,-0.7109,0.2146,0.409,-0.5304,108.03,347.33,280.07,15.95
472,-0.7451,0.1812,0.3756,-0.5205,96.91,349.49,285.38,17.1
473,-0.7813,0.1883,0.3313,-0.4943,89.48,357.31,294.25,16.46
474,-0.7864,0.1956,0.3229,-0.4889,88.72,359.34,296.0,16.35
475,-0.7865,0.1835,0.3236,-0.4931,87.25,357.58,294.86,18.31
476,-0.7761,0.1954,0.3289,-0.5013,89.89,357.86,293.4,15.39
477,-0.7857,0.1929,0.3147,-0.4964,86.63,359.27,295.15,17.88
478,-0.7932,0.1838,0.3045,-0.4943,83.33,359.27,295.86,17.78
479,-0.7971,0.1744,0.3151,-0.4847,84.35,357.88,296.58,17.99
480,-0.793,0.1721,0.325,-0.4856,86.09,356.65,295.71,18.91
481,-0.8256,0.2146,0.0621,-0.5181,37.91,17.86,298.79,17.44
482,-0.8266,0.1851,-0.0188,-0.5312,19.06,19.3,296.16,14.12
483,-0.8659,0.1554,-0.0682,-0.4705,3.23,19.47,303.24,15.08
484,-0.912,0.1373,-0.0814,-0.3778,354.87,18.2,314.58,14.12
485,-0.9541,0.1537,-0.0523,-0.2518,357.43,18.65,330.22,14.81
486,-0.9828,0.1287,-0.0508,-0.122,352.16,15.43,345.32,14.21
487,-0.9899,0.1388,-0.0287,-0.0062,353.7,16.0,358.83,13.32
488,-0.9889,0.142,-0.0433,0.0022,350.11,16.36,359.54,14.31
489,-0.988,0.1487,-0.0417,0.0005,350.53,17.14,359.35,13.4
490,-0.9856,0.1581,-0.0557,-0.0205,348.15,18.4,356.66,14.7
491,-0.9738,0.1995,-0.0536,-0.0952,352.39,23.56,348.04,13.3
492,-0.9367,0.2948,0.1835,0.0435,37.1,36.83,11.55,12.26
493,-0.913,0.3239,0.2462,0.0313,50.85,42.21,13.88,18.68
494,-0.9094,0.3461,0.2267,0.0429,44.98,44.62,14.73,17.81
495,-0.9163,0.3354,0.2147,0.0433,42.74,42.85,13.88,17.0
496,-0.9226,0.3251,0.2046,0.0344,41.62,41.06,12.13,17.41
497,-0.9257,0.3279,0.185,0.0357,37.23,40.89,11.41,16.91
498,-0.9319,0.3193,0.1692,0.0315,34.34,39.35,10.05,15.81
499,-0.9443,0.2917,0.1522,0.0086,32.8,35.24,6.28,16.87
500,-0.9511,0.2788,0.1329,-0.0011,29.36,33.23,4.27,17.81
501,-0.9563,0.2718,0.1074,0.0085,23.16,32.18,4.37,16.38
502,-0.9643,0.2477,0.0922,0.0168,19.51,29.2,4.54,16.91
503,-0.9643,0.2531,0.0643,0.0436,11.69,29.76,6.73,17.57
504,-0.9654,0.243,0.0657,0.0679,10.77,28.7,9.43,18.24
505,-0.9691,0.221,0.0663,0.0875,10.31,26.22,11.52,17.64
506,-0.9754,0.1782,0.0835,0.0989,14.66,21.54,12.98,16.21
507,-0.978,0.1705,0.069,0.0984,11.65,20.42,12.54,16.87
508,-0.9781,0.1775,0.0378,0.1019,4.34,20.81,12.29,16.95
509,-0.9754,0.1911,0.0266,0.1069,1.27,22.25,12.63,18.31
510,-0.971,0.2119,0.0227,0.1083,359.8,24.61,12.71,16.16
511,-0.9677,0.2258,0.0164,0.1112,357.88,26.15,12.86,16.76
512,-0.9629,0.2442,0.0089,0.1141,355.58,28.21,12.96,14.96
513,-0.96,0.2554,-0.0052,0.1149,352.13,29.36,12.62,17.12
514,-0.9604,0.2523,-0.0084,0.1176,351.34,28.95,12.84,14.6
515,-0.9589,0.255,0.0017,0.1245,353.09,29.36,13.89,17.15
516,-0.9577,0.2615,0.0025,0.1201,353.35,30.15,13.4,16.49
517,-0.9346,0.3212,0.1133,0.1026,16.77,39.08,15.51,17.12
518,-0.8973,0.3618,0.2377,0.0864,42.71,47.83,20.56,18.31
519,-0.8466,0.3909,0.3508,0.0861,63.56,58.17,29.61,17.99
520,-0.8829,0.3517,0.2946,0.1001,53.46,49.58,25.46,22.31
521,-0.9177,0.3042,0.2204,0.1289,38.06,40.6,23.09,18.56
522,-0.9216,0.2766,0.2244,0.1539,38.37,37.81,25.58,18.37
523,-0.9302,0.2611,0.2044,0.1575,34.67,35.19,24.76,18.37
524,-0.9356,0.2496,0.1778,0.1753,28.38,33.1,25.46,17.38
525,-0.9524,0.1882,0.1209,0.2071,17.52,24.41,26.43,15.92
526,-0.9559,0.177,0.1189,0.202,17.93,23.03,25.69,17.41
527,-0.9576,0.1755,0.1206,0.194,18.76,22.83,24.8,16.91
528,-0.9555,0.1754,0.1408,0.1908,23.32,23.4,25.01,17.35
529,-0.9628,0.16,0.1111,0.1872,17.72,20.73,23.62,19.27
530,-0.9669,0.1364,0.0949,0.1935,15.03,17.64,23.8,18.18
531,-0.97,0.1274,0.0733,0.1937,10.64,16.07,23.34,17.86
532,-0.972,0.0642,-0.0537,0.2197,344.76,5.86,25.09,15.09
533,-0.9506,0.1825,0.0983,0.2312,11.77,23.23,28.55,16.76
534,-0.9564,0.1582,0.1183,0.2153,18.2,20.99,27.06,20.12
535,-0.958,0.1669,0.0999,0.2106,13.91,21.38,26.11,18.94
536,-0.9607,0.1658,0.0918,0.2029,12.53,20.98,25.01,18.56
537,-0.9625,0.1579,0.1057,0.1937,16.36,20.39,24.23,17.29
538,-0.971,0.1322,0.1085,0.1674,19.15,17.29,21.02,18.24
539,-0.9777,0.1162,0.1052,0.1397,19.96,15.1,17.59,18.5
540,-0.9806,0.0779,0.1258,0.1282,26.22,10.95,16.16,19.27
541,-0.9848,0.0488,0.127,0.1076,27.74,7.31,13.37,17.44
542,-0.9843,0.0076,0.1387,0.1091,31.49,2.69,13.02,18.18
543,-0.9825,0.0119,0.1359,0.1267,30.62,3.43,15.16,17.93
544,-0.9853,-0.0122,0.1251,0.1153,28.88,0.28,13.39,18.18
545,-0.9849,-0.0456,0.1283,0.107,30.43,356.3,11.91,16.78
546,-0.988,-0.0688,0.098,0.0975,23.9,353.14,10.55,16.74
547,-0.9864,-0.0845,0.0995,0.0997,24.61,351.36,10.6,17.16
548,-0.9862,-0.095,0.0851,0.1056,21.65,350.07,11.28,16.46
549,-0.9834,-0.1396,0.0568,0.101,16.08,344.59,10.63,17.33
550,-0.9773,-0.1625,0.0839,0.1072,22.93,342.2,10.72,15.29
551,-0.9712,-0.191,0.0987,0.1025,26.7,338.87,9.55,15.92
552,-0.9682,-0.2039,0.1015,0.1038,27.64,337.36,9.46,15.92
553,-0.9593,-0.2188,0.1459,0.1032,37.94,335.67,8.15,17.45
554,-0.9484,-0.2688,0.1461,0.0835,37.56,329.16,4.84,16.78
555,-0.9466,-0.2918,0.1189,0.068,30.71,326.22,3.53,15.05
556,-0.9439,-0.3138,0.0917,0.0474,23.4,323.41,1.87,15.95
557,-0.9379,-0.3366,0.0776,0.0307,19.15,320.54,0.31,16.59
558,-0.9326,-0.354,0.066,0.0254,16.22,318.43,0.04,14.56
559,-0.9101,-0.4106,0.0557,-0.0083,10.87,311.27,356.5,12.62
560,-0.8646,-0.4952,0.0698,-0.0479,8.39,300.07,351.23,15.13
561,-0.8725,-0.4723,0.1012,-0.0733,12.34,302.45,347.01,13.13
562,-0.8554,-0.485,0.1558,-0.094,20.21,299.25,341.53,16.23
563,-0.85,-0.478,0.1963,-0.1025,27.28,298.65,338.14,14.57
564,-0.844,-0.4828,0.2005,-0.1201,25.7,297.72,336.02,14.58
565,-0.8336,-0.4867,0.2006,-0.1674,19.76,296.9,331.22,15.29
566,-0.8547,-0.4526,0.1904,-0.1686,19.91,301.71,332.13,14.08
567,-0.8623,-0.4289,0.2159,-0.1611,27.09,303.66,331.56,12.77
568,-0.8743,-0.4019,0.2255,-0.1529,31.49,306.71,332.23,13.43
569,-0.8693,-0.3803,0.2663,-0.1699,39.0,307.12,328.12,13.27
570,-0.8652,-0.3844,0.2806,-0.1581,42.69,305.97,328.31,11.39
571,-0.8603,-0.3901,0.291,-0.1518,44.95,304.72,328.1,14.57
572,-0.8413,-0.4109,0.3186,-0.1482,48.94,300.31,325.83,12.77
573,-0.8283,-0.4263,0.3304,-0.1518,49.41,297.41,324.07,13.21
574,-0.8074,-0.4222,0.3688,-0.1839,52.25,294.44,317.34,11.2
575,-0.7796,-0.4257,0.4095,-0.208,54.95,289.91,310.66,12.26
576,-0.8191,-0.4135,0.3639,-0.1601,55.26,296.34,320.52,11.16
577,-0.8215,-0.3991,0.3822,-0.141,62.04,297.02,321.23,10.71
578,-0.7782,-0.4131,0.459,-0.1143,76.63,287.6,314.76,10.87
579,-0.6571,-0.5107,0.5489,-0.0776,79.9,260.67,300.18,11.31
580,-0.585,-0.4991,0.6392,0.0116,98.82,241.01,286.3,10.63
581,-0.5526,-0.458,0.6902,0.0922,115.81,225.5,273.26,12.6
582,-0.5481,-0.4435,0.6914,0.1578,127.76,217.49,269.24,10.06
583,-0.575,-0.3879,0.6799,0.2379,150.25,208.53,261.53,9.75
584,-0.6373,-0.3018,0.6406,0.304,179.36,121.48,172.21,14.34
585,-0.6352,-0.3207,0.6259,0.3193,178.48,324.03,17.84,11.48
586,-0.5751,-0.3345,0.6501,0.3671,166.74,126.64,186.23,14.57
587,-0.5553,-0.2593,0.6558,0.4408,146.25,88.96,149.02,13.69
588,-0.4508,-0.1958,0.6851,0.5378,111.82,91.56,157.28,12.77
589,-0.3322,-0.1085,0.7561,0.5533,76.99,102.31,164.92,13.41
590,-0.2165,-0.1232,0.8341,0.4922,57.69,118.78,179.5,14.6
591,-0.2138,-0.1455,0.8189,0.5124,59.9,116.27,181.27,13.83
592,-0.1745,-0.1372,0.8415,0.4926,50.79,120.15,183.75,13.93
593,-0.0563,-0.1292,0.9089,0.3924,23.51,134.46,191.24,14.85
594,0.0444,-0.1349,0.9387,0.314,0.16,143.02,196.33,11.61
595,0.1302,-0.1417,0.9423,0.2739,340.69,145.87,200.08,10.49
596,0.2805,-0.1647,0.9306,0.168,304.37,152.74,206.94,10.43
597,0.3702,-0.176,0.9076,0.0909,280.41,157.4,210.22,11.75
598,0.4416,-0.1832,0.8771,0.045,261.39,158.32,213.64,9.73
599,0.546,-0.17,0.8192,-0.0446,229.09,164.29,213.57,10.65
600,0.6262,-0.1522,0.7632,-0.0474,208.03,150.77,225.58,11.21
601,0.6788,-0.0879,0.7267,-0.0591,189.06,154.95,216.99,8.34
602,0.6688,-0.1811,0.7165,-0.0814,197.93,126.29,255.17,9.81
603,0.668,-0.2513,0.6959,-0.0795,208.28,112.87,274.39,10.56
604,0.6624,-0.2661,0.6995,-0.0321,218.57,111.36,273.34,7.84
605,0.6228,-0.2771,0.7297,-0.0543,220.25,129.4,258.14,10.17
606,0.6013,-0.2896,0.7369,-0.1078,216.91,143.25,249.82,8.45
607,0.5602,-0.2868,0.7695,-0.1085,224.84,156.13,236.98,10.76
608,0.4988,-0.2786,0.807,-0.1497,234.66,175.45,220.87,11.5
609,0.4886,-0.2881,0.8051,-0.1735,235.08,179.73,219.54,11.81
610,0.5163,-0.268,0.8004,-0.1452,230.56,174.05,220.79,8.52
611,0.6787,-0.3922,0.6066,-0.1327,223.92,96.67,307.76,8.37
612,0.9384,-0.3377,0.0721,-0.0121,343.49,39.69,358.49,7.28
613,0.942,-0.2843,-0.0602,0.1676,24.09,31.81,343.27,6.52
614,0.9347,-0.2994,0.1593,0.1062,332.9,37.63,342.4,9.33
615,0.9438,-0.2075,0.2507,-0.0586,300.34,24.69,0.43,5.24
616,0.9142,-0.1781,0.3111,-0.1892,280.97,15.63,17.75,3.17
617,0.862,-0.2097,0.4355,-0.1525,250.87,23.23,7.96,4.66
618,0.8178,-0.191,0.526,-0.1346,228.53,24.56,2.68,5.92
619,0.8118,-0.2262,0.5378,-0.0234,235.8,46.99,333.96,2.32
620,0.8032,-0.2636,0.5116,0.1538,264.41,59.84,309.7,3.8
621,0.842,-0.2915,0.397,0.22,294.59,52.27,314.33,8.13
622,0.8738,-0.2731,0.3173,0.2475,310.42,44.33,318.14,8.42
623,0.896,-0.2393,0.2057,0.3124,334.69,34.83,317.57,7.61
624,0.8938,-0.1756,0.1003,0.4003,355.57,23.23,311.29,12.44
625,0.89,-0.0862,0.0259,0.4469,3.55,10.17,306.83,10.53
626,0.8696,-0.0975,0.0051,0.484,9.8,10.08,302.23,9.2
627,0.8534,-0.1519,0.0556,0.4955,6.39,18.35,300.23,14.46
628,0.8804,-0.1784,0.0444,0.4371,8.92,20.74,308.02,15.7
629,0.9073,-0.2065,-0.0568,0.362,29.26,20.17,319.12,9.42
630,0.9475,-0.1892,-0.014,0.2576,14.25,20.73,330.89,10.45
631,0.9764,-0.0626,0.0522,0.2002,351.18,8.26,336.51,8.29
632,0.9749,-0.0747,0.1123,0.1773,337.8,10.9,338.32,7.33
633,0.9751,-0.1307,0.1199,0.1333,337.03,17.02,342.71,6.46
634,0.9442,-0.2639,0.0963,0.1717,349.54,32.26,337.88,4.89
635,0.9099,-0.3022,0.013,0.2839,17.01,34.31,327.98,8.97
636,0.8029,-0.5099,-0.0235,0.3078,41.17,59.24,329.84,10.73
637,0.6429,-0.6821,0.0372,0.3465,50.29,85.77,326.75,9.33
638,0.5451,-0.7369,0.1362,0.3757,47.82,97.75,318.11,11.71
639,0.3714,-0.8735,0.2105,0.2338,29.21,129.44,325.98,11.97
640,0.2525,-0.9212,0.2588,0.144,15.46,147.0,326.33,14.92
641,0.4355,-0.8677,0.1843,0.1534,12.13,125.23,332.88,14.61
642,0.5776,-0.7791,0.1342,0.2036,18.67,104.67,333.24,15.06
643,0.7342,-0.619,0.0446,0.2752,31.96,76.18,331.46,14.16
644,0.8481,-0.4489,-0.0019,0.2815,29.66,51.86,330.51,14.32
645,0.8855,-0.312,-0.0369,0.3424,32.41,33.3,322.59,16.17
646,0.8714,-0.2298,-0.1188,0.4168,46.99,19.19,312.91,16.84
647,0.7946,-0.2501,-0.2028,0.5147,70.86,13.39,298.42,19.92
648,0.7365,-0.2302,-0.2398,0.5892,77.28,4.16,284.14,18.75
649,0.6762,-0.2306,-0.2726,0.6444,83.51,356.97,271.61,19.52
650,0.6096,-0.1725,-0.2214,0.7413,63.44,352.03,256.59,21.8
651,0.5171,0.0173,-0.1869,0.8351,18.93,340.45,241.9,14.8
652,0.3467,0.1592,-0.2763,0.8821,349.75,323.11,224.62,14.64
653,0.0405,0.2179,-0.334,0.9161,316.3,317.29,193.69,14.16
654,-0.1608,0.2872,-0.3364,0.8823,284.11,320.52,173.41,12.75
655,-0.4122,0.2732,-0.2358,0.8366,278.69,347.11,132.33,14.64
656,-0.5168,0.3471,-0.1485,0.7684,273.24,10.35,108.02,16.21
657,-0.5279,0.4024,-0.2242,0.7136,251.62,10.32,101.72,17.19
658,-0.4042,0.5128,-0.4016,0.6422,201.0,326.27,143.93,15.71
659,-0.2949,0.6042,-0.6768,0.2998,260.81,184.37,261.5,18.13
660,0.0325,0.4947,-0.833,0.2457,338.23,206.72,238.82,18.87
661,0.259,0.2943,-0.8309,0.3948,22.85,235.58,225.04,17.93
662,0.3714,0.06,-0.7966,0.4731,64.68,250.9,211.94,19.29
663,0.2614,-0.444,-0.5726,0.6377,119.9,264.28,159.53,19.61
664,0.1868,-0.6097,-0.4184,0.6468,141.82,253.39,124.83,16.99
665,0.0931,-0.6504,-0.3817,0.6501,132.91,249.89,110.0,17.15
666,-0.0352,-0.7559,-0.3592,0.5463,106.36,228.04,75.98,17.12
667,-0.0196,-0.7427,-0.2914,0.6026,124.16,234.33,77.17,18.67
668,0.0087,-0.6558,-0.2514,0.7118,139.42,272.22,113.76,16.93
669,0.0673,-0.5889,-0.1826,0.7845,143.04,319.16,159.78,18.49
670,0.0798,-0.5464,-0.1972,0.8101,132.89,324.46,167.55,17.85
671,0.0695,-0.5167,-0.2092,0.8273,124.26,324.08,167.51,17.48
672,0.1607,-0.5313,-0.1204,0.823,131.92,356.15,199.6,15.42
673,0.2704,-0.5182,0.0023,0.8114,114.21,31.53,234.33,16.21
674,0.2903,-0.5013,0.0088,0.8151,108.59,31.57,235.71,12.82
675,0.3902,-0.4193,0.0623,0.8174,79.1,33.81,243.51,13.43
676,0.4992,-0.3519,0.0366,0.791,62.7,28.63,252.7,15.29
677,0.4281,-0.5146,-0.0809,0.7385,112.06,35.09,259.3,14.67
678,0.334,-0.6538,0.0206,0.6787,121.77,72.75,279.22,13.94
679,0.2921,-0.7714,0.1528,0.5443,97.26,111.0,303.08,15.63
680,0.2507,-0.7642,0.4025,0.4371,55.59,123.8,289.39,15.71
681,0.2984,-0.7334,0.4765,0.3821,32.06,123.46,285.32,15.46
682,0.2493,-0.7082,0.5639,0.344,23.77,130.77,277.48,15.7
683,0.2316,-0.6642,0.5273,0.4766,45.76,118.41,269.35,16.41
684,0.2385,-0.6731,0.4145,0.5642,68.36,107.56,271.37,14.12
685,0.3083,-0.6109,0.3221,0.6542,73.84,86.69,265.44,13.68
686,0.4033,-0.4952,0.2415,0.7306,63.86,62.42,257.46,14.67
687,0.5325,-0.37,0.1254,0.7509,49.92,39.97,259.89,12.77
688,0.5541,-0.3619,0.0332,0.7489,60.69,31.5,261.74,13.2
689,0.5543,-0.382,-0.0608,0.737,78.17,25.48,263.07,15.92
690,0.5544,-0.4109,-0.2065,0.6937,106.07,16.33,265.46,12.69
691,0.4118,-0.478,-0.2864,0.721,135.41,357.08,237.5,17.35
692,0.3435,-0.3391,-0.328,0.8121,101.81,331.61,212.12,16.18
693,0.474,-0.2766,-0.3311,0.7676,95.21,338.6,233.86,17.84
694,0.6483,-0.145,-0.406,0.6276,90.2,332.9,260.43,17.4
695,0.7645,-0.3298,-0.4154,0.3663,122.52,24.57,323.5,17.81
696,0.7372,-0.5744,0.0876,0.3447,30.96,70.31,320.81,18.69
697,0.6137,-0.7245,0.2936,0.1102,336.84,103.11,325.08,17.29
698,0.2307,-0.8724,0.3184,-0.2904,278.37,163.29,326.15,18.91
699,0.1006,-0.8897,0.1264,-0.4271,256.5,173.41,347.02,18.99
700,0.2135,-0.8702,0.0826,-0.4362,254.78,150.44,4.02,20.0
701,0.4131,-0.7465,-0.1443,-0.5012,282.02,101.6,54.09,17.94
702,0.5558,-0.5826,-0.3442,-0.4829,339.26,85.09,72.44,17.74
703,0.6829,-0.4773,-0.3099,-0.458,358.41,69.37,67.14,17.28
704,0.7073,-0.4509,-0.2891,-0.4613,359.19,64.77,65.97,15.81
705,0.6698,-0.5153,-0.3358,-0.4159,2.43,75.92,64.62,16.06
706,0.5394,-0.5792,-0.302,-0.5314,326.31,81.18,74.68,15.43
707,0.3138,-0.385,-0.2861,-0.8194,306.33,52.78,124.59,16.06
708,-0.0677,-0.0813,-0.3162,-0.9428,337.39,36.63,184.46,16.45
709,-0.2841,0.1098,-0.2983,-0.9046,3.33,37.04,215.43,18.71
710,-0.3148,0.1477,-0.2281,-0.9094,14.37,30.79,220.17,16.53
711,-0.5449,0.1495,-0.1967,-0.8012,2.88,28.58,248.81,17.25
712,-0.8917,0.0938,-0.1566,-0.4141,336.74,17.65,308.37,18.93
713,-0.9733,0.1249,-0.1403,-0.1318,332.21,16.77,342.52,18.68
714,-0.9685,0.2284,0.0167,-0.0978,8.84,26.13,349.49,17.78
715,-0.9796,0.1754,0.0983,-0.0003,22.21,20.5,1.98,13.97
716,-0.9826,0.0736,0.1602,0.0587,35.67,9.89,8.39,14.36
717,-0.9564,-0.0116,0.2914,0.0181,67.81,359.2,1.93,13.62
718,-0.9224,-0.1468,0.3511,-0.0662,77.84,335.92,343.17,16.33
719,-0.7752,-0.3418,0.3899,-0.3607,41.95,299.67,297.81,15.09
720,-0.6213,-0.5046,0.3628,-0.4773,356.45,283.16,286.34,9.64
721,-0.39,-0.6621,0.473,-0.431,336.74,250.67,280.65,16.91
722,0.1142,-0.7951,0.5803,-0.1343,319.5,178.43,288.03,11.26
723,0.716,-0.4428,0.5175,0.1525,285.4,84.8,301.69,11.72
724,0.7359,0.088,0.6501,0.1678,199.02,32.47,306.61,11.9
725,0.5243,0.1819,0.8315,-0.026,240.83,207.52,139.36,14.82
726,0.4204,0.2542,0.8676,0.0769,259.56,187.21,143.95,14.11
727,0.454,0.3851,0.7995,0.08,256.08,201.1,118.19,13.48
728,0.4947,0.4992,0.7058,-0.0894,284.96,231.42,90.88,14.31
729,0.4674,0.4566,0.7268,-0.2117,301.83,237.2,99.62,11.37
730,0.2263,0.2937,0.8945,-0.2497,330.08,216.87,138.64,12.29
731,-0.0021,0.2078,0.9782,-0.0005,0.5,180.0,156.01,8.6
732,-0.033,0.1867,0.9218,0.3382,352.5,140.42,158.44,7.33
733,0.0438,0.1017,0.7856,0.6088,337.78,105.05,173.77,13.44
734,0.1883,-0.2385,0.5831,0.7534,16.08,77.98,214.57,14.86
735,0.5777,-0.4953,0.3902,0.5183,7.17,78.16,279.12,11.6
736,0.8136,-0.5698,0.0824,0.0812,355.23,70.28,346.93,6.04
737,0.8011,-0.4692,-0.3269,-0.1768,41.94,68.25,39.19,2.59
738,0.756,-0.4712,-0.4061,-0.2038,49.91,75.55,49.64,357.27
739,0.7042,-0.5573,-0.3962,-0.1912,40.35,86.03,49.23,351.97
740,0.6379,-0.6076,-0.412,-0.2326,28.14,94.61,55.29,356.59
741,0.7109,-0.4858,-0.3139,-0.4001,6.59,70.65,61.08,358.24
742,0.7673,-0.3347,-0.2225,-0.4997,0.81,47.39,66.32,353.21
743,0.774,-0.3321,-0.212,-0.4956,359.88,46.4,65.24,357.32
744,0.7668,-0.2955,-0.2678,-0.503,13.02,46.66,69.34,351.37
745,0.779,-0.2468,-0.3875,-0.4266,46.31,51.07,68.59,353.33
746,0.7676,-0.3593,-0.4675,-0.2513,64.98,68.82,58.83,354.74
747,0.7976,-0.44,-0.4026,-0.0901,68.53,69.56,37.05,357.74
748,0.8702,-0.3072,-0.3698,0.1078,90.45,40.23,3.22,358.3
749,0.8995,-0.2823,-0.2959,0.1539,76.53,32.06,351.96,357.45
750,0.931,-0.3223,-0.1052,0.1354,32.9,36.59,348.93,356.88
751,0.9552,-0.2721,0.0638,0.0976,352.12,32.25,347.19,358.64
752,0.9476,-0.188,0.2083,0.1529,320.57,26.5,336.98,358.37
753,0.9005,-0.3455,-0.0681,0.2551,34.78,38.0,334.39,359.38
754,0.8561,-0.4413,0.0509,0.264,16.76,52.27,329.84,2.63
755,0.8365,-0.5257,0.0959,0.1211,356.19,64.6,342.32,0.3
756,0.5919,-0.7356,0.3258,-0.0499,305.35,109.35,331.77,1.3
757,0.3344,-0.7791,0.5103,-0.1444,291.03,153.05,302.06,4.54
758,0.2204,-0.7464,0.5647,-0.2747,277.56,178.57,286.32,8.55
759,0.2585,-0.6981,0.5899,-0.3129,264.23,180.7,279.29,7.67
760,0.2922,-0.6432,0.6217,-0.3382,254.04,184.26,269.83,5.04
761,0.354,-0.5768,0.6415,-0.3612,238.88,186.43,260.17,5.12
762,0.3558,-0.5392,0.6886,-0.3296,244.58,187.55,251.96,7.93
763,0.4512,-0.5479,0.6669,-0.2269,243.48,158.62,270.83,8.4
764,0.5112,-0.543,0.6489,-0.1512,248.3,140.26,281.53,5.24
765,0.5402,-0.5297,0.6455,-0.1047,252.14,132.07,284.22,7.09
766,0.657,-0.4923,0.5703,-0.0274,258.15,102.38,303.51,5.24
767,0.7346,-0.4573,0.4994,0.0438,272.16,83.37,313.68,6.92
768,0.7867,-0.4156,0.4424,0.1126,285.91,70.75,316.95,7.16
769,0.9306,-0.2244,0.1713,0.2331,335.27,30.62,328.48,8.01
770,0.9685,0.0266,-0.0686,0.2378,13.81,355.13,332.11,6.59
771,0.9506,-0.0104,-0.0606,0.3043,13.97,359.01,324.44,7.95
772,0.8961,0.0695,-0.3786,0.221,80.74,337.47,323.92,7.05
773,0.5771,0.1701,-0.776,0.1891,112.5,241.83,240.22,7.61
774,0.1936,0.0826,-0.9395,0.2702,37.21,214.72,195.92,7.77
775,0.0473,-0.0768,-0.8919,0.4431,17.53,232.41,174.48,10.45
776,-0.0076,-0.2136,-0.8335,0.5095,23.66,240.58,158.18,10.3
777,-0.1747,-0.3294,-0.8099,0.4528,1.76,238.07,136.22,10.7
778,-0.3358,-0.5003,-0.6347,0.4838,6.63,252.13,105.91,15.56
779,-0.2518,-0.6552,-0.5105,0.4966,46.37,245.59,90.91,16.95
780,-0.2127,-0.6907,-0.624,0.2973,16.71,222.22,87.42,16.42
781,-0.1641,-0.6963,-0.685,0.1381,356.27,204.7,88.66,18.16
782,-0.0453,-0.6545,-0.7507,-0.0777,340.46,176.66,98.11,17.55
783,0.19,-0.4897,-0.7706,-0.361,353.03,131.94,116.68,14.99
784,0.353,-0.3161,-0.7501,-0.4613,27.53,109.56,124.56,16.8
785,0.4187,-0.2671,-0.754,-0.43,47.36,107.78,123.6,14.61
786,0.4248,-0.2949,-0.7282,-0.4498,41.4,104.52,119.82,15.1
787,0.3774,-0.335,-0.7092,-0.4923,23.71,103.61,120.09,15.09
788,0.3077,-0.349,-0.709,-0.5299,7.63,104.45,124.63,13.9
789,0.2998,-0.3184,-0.713,-0.5481,9.01,102.71,128.27,15.47
790,0.3311,-0.2739,-0.712,-0.5553,19.27,99.57,129.77,13.45
791,0.3325,-0.2634,-0.69,-0.5865,17.24,95.28,130.36,12.0
792,0.3254,-0.2533,-0.6694,-0.6179,14.08,91.42,131.68,14.5
793,0.3406,-0.226,-0.6702,-0.6195,20.33,90.02,132.56,14.74
794,0.3696,-0.1982,-0.6634,-0.6197,28.33,87.56,131.96,12.67
795,0.4029,-0.1848,-0.6379,-0.6298,32.67,82.95,129.25,14.17
796,0.4219,-0.1943,-0.6143,-0.6379,31.39,79.84,126.19,16.24
797,0.4361,-0.1879,-0.6072,-0.637,33.73,78.42,125.0,13.84
798,0.431,-0.1904,-0.6266,-0.6207,35.37,81.42,125.7,14.95
799,0.4442,-0.1735,-0.6243,-0.6187,39.74,80.18,125.43,11.59
800,0.4491,-0.155,-0.6069,-0.6372,40.68,76.72,125.8,12.83
801,0.4461,-0.1295,-0.6152,-0.637,45.14,76.89,127.99,15.09
802,0.4135,-0.1351,-0.6558,-0.617,44.13,83.59,132.11,11.31
803,0.1701,-0.2475,-0.7847,-0.5423,359.83,110.72,145.05,14.36
804,-0.0107,-0.2233,-0.8705,-0.4384,335.24,129.05,157.15,13.77
805,0.0124,-0.1609,-0.8924,-0.4214,346.97,130.44,162.57,9.27
806,0.0799,-0.082,-0.9055,-0.4085,8.91,130.95,167.62,11.37
807,0.1595,-0.0267,-0.9048,-0.3939,31.06,131.53,169.6,7.46
808,0.1995,-0.0291,-0.9069,-0.3699,39.79,133.46,167.69,11.6
809,0.2604,-0.0333,-0.8707,-0.4159,50.4,124.96,162.33,11.14
810,0.2526,-0.0441,-0.8539,-0.4528,46.08,120.16,160.7,10.3
811,0.2136,-0.035,-0.8597,-0.4627,39.12,120.67,164.12,10.3
812,0.1198,-0.0609,-0.8722,-0.4703,17.44,122.36,167.2,7.93
813,0.0492,-0.1001,-0.8558,-0.5052,358.05,119.0,167.23,10.11
814,0.0753,-0.1181,-0.8312,-0.538,359.79,114.19,163.89,9.27
815,0.1429,-0.1009,-0.8198,-0.5454,14.27,111.54,161.11,11.65
816,0.1559,-0.0984,-0.8231,-0.5371,17.37,112.26,160.54,10.57
817,0.1097,-0.1797,-0.7738,-0.5974,354.85,105.21,155.83,13.96
818,0.1941,-0.2725,-0.6839,-0.6484,349.92,94.83,141.18,7.79
819,0.2056,-0.3204,-0.6079,-0.6968,337.34,86.75,136.41,11.65
820,0.136,-0.3048,-0.6348,-0.6968,330.79,89.52,143.42,12.41
821,0.1294,-0.2148,-0.6618,-0.7064,344.8,88.17,151.88,16.78
822,0.206,-0.0388,-0.6741,-0.7083,25.74,84.81,159.32,11.08
823,0.2384,0.021,-0.6014,-0.7622,37.17,73.09,159.1,9.89
824,0.3072,0.0268,-0.5317,-0.7888,43.3,62.22,150.61,14.64
825,0.3139,0.2499,-0.4939,-0.7714,88.15,57.38,160.7,11.59
826,0.3437,0.3751,-0.4281,-0.747,117.43,47.31,158.27,12.0
827,0.4134,0.4094,-0.3663,-0.7261,127.66,26.02,137.07,9.56
828,0.4448,0.457,-0.3417,-0.6903,138.43,10.6,121.74,9.33
829,0.4365,0.5589,-0.3414,-0.6169,161.94,334.84,87.87,9.19
830,0.4522,0.628,-0.3291,-0.5411,155.53,268.5,20.99,7.33
831,0.4766,0.6417,-0.3302,-0.502,147.09,261.56,11.16,8.99
832,0.4911,0.6427,-0.308,-0.5009,142.3,267.18,17.29,7.93
833,0.4643,0.6226,-0.3247,-0.5398,153.63,273.47,25.14,5.54
834,0.4376,0.4926,-0.3691,-0.6554,151.3,12.26,122.07,7.61
835,0.3735,0.4381,-0.3825,-0.7227,133.54,34.89,148.74,9.19
836,0.2071,0.4892,-0.3911,-0.7516,127.61,60.79,189.3,8.09
837,-0.0672,0.2686,-0.5102,-0.8143,43.28,68.87,204.37,5.48
838,-0.1528,0.0054,-0.687,-0.7104,336.66,86.72,193.26,7.32
839,-0.1427,-0.1342,-0.8341,-0.5156,315.77,117.49,175.25,5.38
840,-0.0915,-0.3152,-0.8524,-0.4071,311.27,135.69,149.46,5.44
841,-0.1487,-0.6415,-0.6933,-0.2929,288.83,164.64,99.4,3.56
842,-0.1871,-0.862,-0.4606,-0.0987,319.94,194.28,53.69,10.7
843,-0.2144,-0.9246,-0.3038,0.0831,2.69,206.56,36.7,8.43
844,-0.0983,-0.9551,-0.2782,0.0274,359.73,191.71,32.46,8.93
845,-0.0758,-0.9567,-0.2693,-0.0807,337.5,185.94,30.86,11.31
846,-0.0216,-0.9398,-0.2815,0.1923,40.88,189.14,35.0,8.7
847,-0.1476,-0.9153,-0.3543,0.1224,13.72,201.07,43.6,7.2
848,-0.2906,-0.8921,-0.2994,0.1735,15.59,218.92,39.86,4.59
849,-0.31,-0.9197,-0.1807,0.1593,20.86,219.66,26.0,9.8
850,-0.2948,-0.9121,-0.2845,0.0128,343.39,213.43,32.15,10.77
851,-0.2456,-0.8636,-0.3992,-0.1857,297.77,198.8,44.34,6.76
852,-0.2265,-0.8096,-0.4512,-0.2994,272.88,187.66,55.2,10.15
853,-0.2239,-0.7454,-0.4622,-0.4249,245.62,173.75,67.01,9.74
854,-0.2341,-0.6709,-0.4373,-0.5512,218.41,149.28,88.29,5.68
855,-0.2984,-0.6097,-0.4207,-0.6018,199.9,124.4,116.99,6.6
856,-0.2997,-0.6662,-0.4268,-0.5331,209.9,167.52,74.89,8.9
857,-0.3004,-0.7463,-0.4601,-0.3758,246.3,190.81,57.44,9.99
858,-0.2833,-0.8438,-0.396,0.2254,17.96,221.67,53.69,7.2
859,-0.3601,-0.6817,-0.1558,0.6175,93.72,271.85,73.97,9.77
860,-0.485,-0.5218,-0.1429,0.6871,70.69,300.55,88.95,5.52
861,-0.4402,-0.4847,-0.1962,0.7299,64.66,302.44,99.71,4.45
862,-0.3459,-0.5641,-0.2489,0.7072,77.46,287.9,99.17,5.13
863,-0.3121,-0.663,-0.33,0.5951,71.33,263.15,84.78,7.13
864,-0.3086,-0.6593,-0.3916,0.5628,60.06,258.26,86.03,3.71
865,-0.357,-0.5801,-0.4513,0.5765,40.57,265.08,94.4,4.55
866,-0.3259,-0.5425,-0.581,0.5118,20.34,254.45,101.66,4.79
867,-0.3449,-0.4774,-0.693,0.4158,350.7,245.31,107.89,6.34
868,-0.389,-0.434,-0.6916,0.4267,340.69,250.25,108.98,3.56
869,-0.397,-0.4292,-0.6922,0.4232,338.54,250.58,108.78,5.07
870,-0.3705,-0.4352,-0.7355,0.3638,333.6,241.76,110.85,4.71
871,-0.288,-0.4363,-0.8282,0.2018,324.96,217.89,118.39,2.23
872,-0.1362,-0.4379,-0.8867,-0.0587,325.93,180.91,127.29,5.31
873,-0.0092,-0.4483,-0.8322,-0.3263,324.15,145.8,128.93,5.17
874,0.1546,-0.4546,-0.6694,-0.5668,324.07,108.99,124.51,5.17
875,0.3486,-0.2029,-0.3984,-0.8237,353.52,53.04,132.5,8.91
876,0.4239,0.1596,-0.1314,-0.8818,46.27,6.02,129.88,6.99
877,0.4994,0.2529,0.086,-0.8241,38.65,335.29,113.3,8.17
878,0.5494,0.2869,0.2862,-0.7308,12.04,312.48,103.48,7.84
879,0.416,0.3922,0.48,-0.6654,14.07,283.5,110.42,9.98
880,0.2988,0.4633,0.4685,-0.6903,42.16,278.12,114.85,12.56
881,0.256,0.5325,0.3984,-0.7016,65.8,277.9,111.07,10.46
882,0.2883,0.455,0.3446,-0.7688,60.13,293.74,119.01,9.01
883,0.3186,0.3278,0.2474,-0.8543,47.45,316.38,129.48,9.54
884,0.3088,0.2836,0.0803,-0.9043,55.2,338.81,137.03,7.13
885,0.2828,0.346,0.0704,-0.8918,70.51,336.83,137.36,7.71
886,0.253,0.4514,0.2597,-0.8154,74.41,305.07,125.68,8.73
887,0.0641,0.553,0.2493,-0.7924,115.22,299.55,135.22,12.45
888,-0.0737,0.5524,0.0356,-0.8295,134.37,3.31,192.36,7.88
889,-0.0921,0.518,-0.2,-0.8265,110.06,48.02,218.85,7.06
890,0.1582,0.6204,-0.3245,-0.6962,150.3,85.63,225.37,3.19
891,0.2626,0.6259,-0.3984,-0.6169,157.92,121.78,245.77,5.19
892,0.1236,0.4872,-0.4414,-0.7433,112.9,75.8,206.46,4.61
893,0.0045,0.4347,-0.3331,-0.8367,93.85,54.14,204.4,5.19
894,-0.098,0.2438,-0.1554,-0.9523,51.43,22.43,196.93,8.13
895,-0.2264,-0.0598,-0.0347,-0.9716,344.84,2.33,206.08,5.12
896,-0.1098,-0.5775,0.144,-0.7961,234.82,309.32,227.84,5.12
897,0.0714,-0.9171,0.0462,-0.3894,267.75,172.13,357.58,7.86
898,0.3453,-0.8867,-0.2396,-0.1928,339.68,134.28,34.53,7.28
899,0.3858,-0.8509,-0.356,0.0193,35.83,137.5,38.4,5.11
900,0.5345,-0.7745,-0.3351,0.0467,50.99,118.04,31.32,7.28
901,0.6041,-0.7176,-0.3411,0.0613,60.01,107.66,28.68,3.98
902,0.3592,-0.8983,-0.241,-0.077,3.97,136.93,29.24,3.56
903,0.0259,-0.9714,-0.1298,-0.1969,315.84,173.72,16.45,1.82
904,-0.0896,-0.9773,-0.0976,-0.1655,320.12,188.74,9.87,5.3
905,-0.007,-0.9839,-0.1765,-0.0262,353.82,180.26,20.33,7.61
906,0.1186,-0.9377,-0.2875,-0.1552,334.25,161.36,36.21,7.27
907,0.1818,-0.8776,-0.3591,-0.2606,321.85,147.61,50.09,6.04
908,0.1641,-0.871,-0.4317,-0.1677,342.7,154.18,54.72,5.11
909,0.1536,-0.8294,-0.5015,-0.1923,341.02,153.01,64.6,3.65
910,0.2175,-0.7527,-0.4979,-0.3718,319.86,132.04,75.96,2.49
911,0.2556,-0.6979,-0.4969,-0.448,316.41,120.26,83.52,0.62
912,0.1794,-0.6908,-0.4851,-0.5052,296.8,119.94,88.73,2.06
913,0.1457,-0.6422,-0.4594,-0.5961,281.65,108.57,99.85,359.42
914,0.1054,-0.642,-0.4085,-0.6402,265.22,103.5,103.1,357.46
915,0.0121,-0.7325,-0.3775,-0.5664,249.7,128.82,82.61,4.0
916,-0.03,-0.826,-0.3416,-0.4473,261.17,156.83,55.71,1.21
917,-0.0571,-0.8954,-0.3335,-0.2896,292.35,173.72,42.77,0.94
918,-0.0095,-0.9114,-0.3947,-0.1157,334.76,175.65,47.31,1.22
919,0.0412,-0.8713,-0.4451,0.2026,45.86,186.77,55.5,0.0
920,0.0908,-0.7687,-0.4286,0.466,105.16,205.31,70.94,1.94
921,0.1366,-0.6959,-0.2626,0.6543,158.47,235.23,88.17,2.56
922,0.1793,-0.7193,0.0779,0.6667,137.22,97.38,285.74,1.97
923,0.0294,-0.8406,0.2158,0.4959,110.37,152.52,316.64,0.94
924,-0.201,-0.935,0.221,0.191,52.98,199.01,337.92,5.59
925,-0.3754,-0.8728,0.3074,0.0534,37.8,221.15,328.35,3.16
926,-0.6112,-0.7375,0.2872,0.0074,42.44,254.27,333.6,3.89
927,-0.6971,-0.6964,0.1234,-0.1179,0.89,269.98,340.36,7.67
928,-0.6724,-0.6759,-0.1147,-0.2791,295.79,274.07,344.93,10.12
929,-0.5634,-0.6543,-0.2503,-0.4379,242.45,272.04,341.33,8.97
930,-0.4085,-0.6198,-0.4281,-0.5154,197.23,205.8,46.97,4.69
931,-0.2115,-0.4842,-0.6072,-0.5934,247.5,111.8,142.66,6.92
932,-0.0974,-0.4357,-0.6906,-0.569,281.85,115.44,140.77,3.97
933,-0.0252,-0.4319,-0.7749,-0.4609,308.16,129.65,134.08,2.25
934,-0.0247,-0.4217,-0.8308,-0.3625,319.43,141.69,133.29,2.32
935,-0.1587,-0.4751,-0.8248,-0.2623,298.53,160.85,125.42,1.02
936,-0.3279,-0.4492,-0.8153,-0.1611,274.39,182.49,121.31,1.59
937,-0.4827,-0.4072,-0.7616,-0.1455,242.76,199.23,112.87,0.0
938,-0.5483,-0.4616,-0.6905,-0.0975,244.17,224.38,87.04,3.06
939,-0.7274,-0.428,-0.5361,-0.017,254.78,275.57,45.63,357.3
940,-0.9289,-0.2911,-0.2078,0.0959,321.45,322.04,18.48,357.44
941,-0.9788,-0.1828,-0.0583,0.0722,349.94,338.43,9.39,0.89
942,-0.9813,-0.1835,-0.0574,0.0098,347.48,338.69,2.33,2.6
943,-0.9713,-0.1842,-0.1491,-0.0205,325.42,338.38,0.91,5.57
944,-0.9551,-0.2045,-0.2075,-0.0544,310.5,336.1,358.8,3.47
945,-0.9547,-0.172,-0.222,-0.098,305.53,341.31,352.84,3.96
946,-0.9683,0.0211,-0.202,-0.1455,314.71,6.2,341.66,359.14
947,-0.9293,0.1689,-0.2788,-0.1734,305.27,27.54,332.03,4.04
948,-0.8923,0.1379,-0.3352,-0.2693,296.82,30.06,317.73,3.7
949,-0.8413,0.083,-0.407,-0.346,282.3,32.75,303.45,4.74
950,-0.7754,0.1518,-0.45,-0.4162,290.28,48.02,287.63,4.0
951,-0.6947,0.2533,-0.4512,-0.4997,316.1,59.94,275.79,3.12
952,-0.6324,0.2166,-0.5332,-0.5185,306.55,67.79,263.16,6.69
953,-0.5745,0.2107,-0.5517,-0.5667,313.47,70.78,254.14,6.17
954,-0.4852,0.3165,-0.4983,-0.645,351.36,72.31,250.75,7.56
955,-0.3739,0.3036,-0.4928,-0.7246,8.2,70.69,237.49,6.02
956,-0.2852,0.2401,-0.5265,-0.7641,7.63,70.67,223.65,6.68
957,-0.1899,0.2094,-0.5432,-0.7906,14.35,71.05,212.14,8.52
958,-0.091,0.1695,-0.5413,-0.8185,20.62,68.76,199.75,8.64
959,-0.0743,0.1057,-0.5932,-0.7946,9.16,74.06,194.14,10.02
960,-0.1177,-0.0609,-0.6276,-0.7672,332.09,77.81,186.16,10.04
961,-0.2161,-0.1559,-0.5511,-0.7908,302.01,66.83,191.2,6.71
962,-0.3114,-0.2532,-0.4786,-0.7809,272.18,54.96,199.79,8.71
963,-0.298,-0.4128,-0.4984,-0.7017,237.59,70.29,180.81,11.26
964,-0.2905,-0.5385,-0.4955,-0.6165,215.68,103.41,145.06,10.15
965,-0.3985,-0.5645,-0.5117,-0.5107,200.34,155.69,104.8,12.45
966,-0.5236,-0.5986,-0.4091,-0.4474,210.83,258.88,4.57,7.73
967,-0.59,-0.6211,-0.2427,-0.4553,243.15,282.21,333.24,10.05
968,-0.5115,-0.6059,-0.1855,-0.5804,233.47,295.95,304.93,10.95
969,-0.2519,-0.515,-0.3329,-0.7487,220.3,43.95,185.72,11.77
970,-0.093,-0.0731,-0.5952,-0.7948,333.78,73.24,183.58,10.21
971,-0.244,0.297,-0.7554,-0.5307,353.87,108.55,225.13,11.81
972,-0.3462,0.4304,-0.7924,-0.2587,321.95,131.5,245.65,8.32
973,-0.3581,0.6348,-0.6816,0.0636,290.63,153.41,274.37,3.88
974,-0.3449,0.7699,-0.5351,-0.0453,325.17,142.6,296.34,0.81
975,-0.3208,0.7362,-0.5575,-0.2107,354.55,134.93,286.86,0.56
976,-0.275,0.694,-0.5489,-0.3762,25.44,125.44,276.74,2.55
977,-0.2311,0.6106,-0.2919,-0.699,91.89,83.06,257.75,4.98
978,-0.0383,0.5682,0.115,-0.8139,138.04,336.35,169.01,8.17
979,0.0854,0.5083,0.3787,-0.7687,91.57,286.36,132.23,8.0
980,-0.0679,0.4791,0.4595,-0.7448,101.82,280.84,147.47,5.98
981,-0.1852,0.4549,0.6427,-0.588,101.24,247.77,144.66,6.63
982,-0.2068,0.4402,0.8304,-0.2719,71.3,199.37,130.42,9.03
983,-0.4022,0.4151,0.7728,-0.2619,114.1,187.49,127.59,6.09
984,-0.4708,0.348,0.7678,-0.2604,129.41,189.72,137.4,5.17
985,-0.3425,0.4444,0.8218,-0.0988,81.2,169.21,119.19,8.09
986,0.1394,0.6411,0.7216,0.2208,302.07,170.79,99.14,7.2
987,0.5701,0.5935,0.3039,0.4799,227.24,286.05,332.27,6.27
988,0.561,0.4513,-0.052,0.692,291.02,315.43,272.57,15.36
989,0.5011,0.4841,-0.2194,0.6829,307.61,299.0,268.14,14.82
990,0.5226,0.5108,-0.0852,0.6773,285.86,305.54,274.89,15.99
991,0.5134,0.57,0.0926,0.6348,250.08,305.45,287.96,16.42
992,0.4614,0.7546,0.2488,0.3946,248.8,242.28,1.15,18.62
993,0.3185,0.9235,0.2025,0.0688,330.34,215.43,19.97,12.6
994,0.2927,0.9476,-0.0743,0.1043,342.26,215.24,348.21,14.11
995,0.2606,0.8567,-0.3557,0.2674,328.33,221.45,308.88,14.99
996,0.2292,0.8043,-0.4411,0.3255,322.5,223.84,294.92,18.25
997,0.2206,0.7441,-0.5299,0.3419,328.08,225.91,282.3,16.73
998,0.281,0.6261,-0.6608,0.304,358.94,228.91,266.67,19.05
999,0.3196,0.5025,-0.7724,0.2206,31.56,223.47,252.42,18.93
1000,0.2738,0.4546,-0.8394,0.1171,41.38,208.44,242.17,20.68
1001,0.0509,0.474,-0.878,0.0432,5.54,187.14,236.9,16.24
1002,-0.1632,0.4923,-0.8456,0.1262,312.81,183.29,239.72,17.07
1003,-0.2805,0.5778,-0.555,0.5285,225.53,222.75,243.15,18.91
1004,-0.2402,0.5773,0.2568,0.7369,266.67,72.9,108.51,17.14
1005,-0.1219,0.3587,0.8045,0.4574,344.84,123.83,135.98,16.15
1006,-0.0036,0.3501,0.9112,0.217,343.28,156.27,139.72,9.14
1007,0.2472,0.4106,0.8408,-0.2516,335.87,219.81,123.56,5.81
1008,0.3532,0.486,0.6132,-0.5129,7.49,257.01,106.18,7.46
1009,0.3458,0.6705,0.4006,-0.52,49.71,255.97,81.24,13.36
1010,0.3693,0.7388,0.1576,-0.5413,86.22,258.84,60.06,9.93
1011,0.3844,0.7174,0.0429,-0.5795,105.95,266.87,57.37,12.12
1012,0.4791,0.6293,-0.0591,-0.6091,110.82,290.73,63.75,13.33
1013,0.4606,0.407,-0.2765,-0.7388,117.74,3.73,118.22,15.57
1014,0.4804,0.428,-0.4072,-0.6483,142.2,21.13,122.11,14.04
1015,0.7202,0.5606,-0.2667,-0.3095,93.99,289.63,12.43,14.99
1016,0.8076,0.5836,0.0407,0.0742,342.49,288.61,355.81,13.75
1017,0.7838,0.518,0.2823,0.1942,279.88,293.41,359.1,14.33
1018,0.7301,0.4317,0.4665,0.2511,232.23,295.87,4.71,14.99
1019,0.6737,0.525,0.4469,0.266,236.36,276.0,13.56,13.9
1020,0.7496,0.5534,0.3451,0.1124,280.14,281.22,16.16,15.61
1021,0.8467,0.4852,-0.0273,-0.2166,29.71,303.08,20.61,12.97
1022,0.7708,0.3311,-0.3178,-0.4418,102.98,338.36,49.11,13.96
1023,0.6712,0.1882,-0.4015,-0.594,99.39,20.28,92.48,17.39
1024,0.7593,0.1977,-0.2125,-0.5824,67.16,356.38,73.89,12.4
1025,0.8364,0.163,-0.2249,-0.4725,64.04,355.93,57.75,13.53
1026,0.7986,0.097,-0.2868,-0.5201,67.97,9.96,69.21,12.63
1027,0.6566,0.0501,-0.3592,-0.6613,65.1,29.05,99.07,14.71
1028,0.5186,0.026,-0.4543,-0.7239,61.18,47.11,122.36,12.4
1029,0.4696,0.003,-0.5608,-0.6819,64.13,64.05,131.27,11.37
1030,0.3592,-0.1173,-0.6521,-0.6573,36.62,82.61,138.81,11.76
1031,0.2201,-0.1658,-0.7126,-0.6451,11.46,94.07,148.48,9.62
1032,0.1399,-0.2509,-0.7412,-0.6067,348.87,103.05,147.03,12.97
1033,0.1171,-0.3371,-0.6913,-0.6283,329.66,100.93,140.55,11.56
1034,0.1302,-0.351,-0.6531,-0.6583,326.03,95.97,138.81,11.31
1035,0.0898,-0.4136,-0.6255,-0.6555,309.09,97.93,135.29,12.7
1036,0.0996,-0.445,-0.596,-0.6609,304.0,96.94,131.41,13.88
1037,0.1465,-0.4952,-0.5509,-0.6556,301.59,96.4,122.32,13.32
1038,0.2499,-0.521,-0.4496,-0.6812,301.97,86.53,112.33,12.46
1039,0.3095,-0.5735,-0.4153,-0.6347,303.8,90.18,99.83,14.04
1040,0.341,-0.6623,-0.4549,-0.488,320.7,108.01,83.3,16.39
1041,0.4384,-0.7154,-0.449,-0.3073,354.74,115.29,65.9,19.17
1042,0.5267,-0.7681,-0.3616,-0.0422,36.87,117.74,39.23,18.34
1043,0.608,-0.7872,-0.0821,-0.0619,0.26,104.65,11.8,19.86
1044,0.6835,-0.6923,0.0903,-0.2131,310.52,88.41,10.55,19.43
1045,0.6639,-0.7275,0.0383,-0.1687,325.54,93.69,10.15,17.77
1046,0.6644,-0.7291,0.0666,-0.1498,324.25,94.35,6.15,19.71
1047,0.7379,-0.6711,0.0646,-0.0316,344.16,84.73,357.68,19.9
1048,0.773,-0.6221,-0.0059,0.1239,18.79,76.77,349.24,21.76
1049,0.7503,-0.639,-0.0814,0.1489,36.4,79.68,352.78,21.57
1050,0.5782,-0.6892,-0.3519,0.2586,99.53,107.81,16.74,20.35
1051,0.3116,-0.4954,-0.6966,0.4151,115.41,210.3,126.14,18.27
1052,0.4109,-0.4677,-0.7261,0.2921,120.87,184.63,117.12,17.45
1053,0.5709,-0.4772,-0.6544,0.1343,122.19,130.2,77.15,16.57
1054,0.6365,-0.4789,-0.5961,-0.1009,82.93,103.07,68.97,16.23
1055,0.6721,-0.407,-0.5341,-0.3122,55.26,83.63,74.65,18.34
1056,0.7948,-0.2274,-0.3897,-0.4058,51.56,48.83,65.96,12.62
1057,0.8424,0.0764,-0.1274,-0.518,34.17,0.19,63.2,16.56
1058,0.7785,0.3183,0.078,-0.5353,25.34,323.6,64.84,16.78
1059,0.808,0.2796,0.1342,-0.5009,7.24,324.02,62.42,14.83
1060,0.7791,0.1597,0.2376,-0.5577,337.85,328.42,74.33,12.53
1061,0.7505,-0.0103,0.3711,-0.5467,290.73,331.68,81.14,13.75
1062,0.6834,-0.2568,0.5006,-0.4652,225.23,342.63,80.12,12.66
1063,0.5297,-0.1482,0.6958,-0.4619,238.14,268.58,144.36,12.72
1064,0.5948,-0.1378,0.7183,-0.3336,217.68,257.51,141.98,11.99
1065,0.6921,-0.2684,0.6575,-0.1291,203.3,92.45,300.37,12.03
1066,0.6178,-0.3183,0.6788,0.2373,273.12,99.84,267.31,11.7
1067,0.2229,-0.2315,0.7362,0.5955,353.98,101.04,217.39,12.53
1068,-0.2977,-0.1797,0.7531,0.5585,80.94,105.16,175.33,15.28
1069,-0.3732,-0.1904,0.7682,0.4841,98.52,112.78,173.94,18.68
1070,-0.5674,-0.2849,0.7283,0.2577,153.5,166.88,212.33,17.68
1071,-0.7548,-0.1799,0.6302,0.0276,148.0,300.77,317.8,16.6
1072,-0.8809,-0.0936,0.4562,-0.0849,103.96,336.83,337.57,19.65
1073,-0.8844,-0.3484,0.3103,-0.0129,65.35,312.13,343.51,18.81
1074,-0.7821,-0.6082,0.1208,0.0619,30.64,283.85,357.02,18.43
1075,-0.7164,-0.6833,0.1198,0.0743,31.7,272.23,356.59,18.84
1076,-0.6819,-0.6926,0.2353,0.0046,38.2,265.75,340.23,17.34
1077,-0.6079,-0.6652,0.4309,0.0487,72.13,251.52,320.51,17.4
1078,-0.5572,-0.6449,0.5218,0.0367,77.93,241.05,305.61,16.7
1079,-0.6588,-0.5595,0.4951,0.0889,97.49,259.85,318.51,16.54
1080,-0.8659,-0.3529,0.354,-0.0202,73.56,308.66,339.17,18.36
1081,-0.9531,-0.263,0.1308,-0.0725,24.38,327.84,347.77,20.89
1082,-0.8756,-0.4604,0.1425,0.0313,32.33,303.89,355.44,19.11
1083,-0.5754,-0.7299,0.3683,-0.022,46.13,248.53,322.28,20.53
1084,-0.3637,-0.8283,0.4018,-0.1419,6.55,225.87,309.64,16.88
1085,-0.4913,-0.7866,0.3439,-0.1467,12.31,241.52,316.43,17.48
1086,-0.5875,-0.7027,0.401,0.0165,59.25,249.16,321.24,17.59
1087,-0.6222,-0.5766,0.4905,0.1995,114.38,254.37,324.16,16.38
1088,-0.7449,-0.4185,0.4803,0.1981,123.63,293.5,346.93,17.67
1089,-0.7611,-0.4412,0.4611,0.1159,107.06,288.19,337.2,17.55
1090,-0.6777,-0.5886,0.4406,-0.0137,71.04,264.28,318.69,16.72
1091,-0.5533,-0.7244,0.3829,-0.1504,23.75,249.51,312.54,14.65
1092,-0.4724,-0.7658,0.1889,-0.3934,309.82,254.36,313.13,15.91
1093,-0.4668,-0.6507,-0.0245,-0.5984,253.44,284.72,298.22,15.59
1094,-0.4891,-0.4553,-0.2012,-0.7162,243.79,342.7,258.32,14.61
1095,-0.512,-0.2937,-0.2387,-0.7711,271.57,5.4,244.96,14.6
1096,-0.4779,-0.2083,-0.144,-0.8411,301.58,2.84,238.47,14.04
1097,-0.3974,-0.121,0.1506,-0.8971,348.82,338.4,228.86,15.91
1098,-0.3202,-0.1616,0.3172,-0.8779,350.76,318.5,221.83,17.25
1099,-0.3148,-0.3003,0.308,-0.8461,323.37,311.57,229.11,19.7
1100,-0.3235,-0.3454,0.2834,-0.8341,313.74,310.78,233.11,16.35
1101,-0.4865,-0.3267,0.3403,-0.7354,342.82,304.14,251.53,15.79
1102,-0.5817,-0.3829,0.3312,-0.6366,348.26,299.33,268.27,17.76
1103,-0.6496,-0.3084,0.3753,-0.5849,14.58,302.17,271.97,16.88
1104,-0.6912,-0.3118,0.5329,-0.3755,60.34,285.96,279.99,18.36
1105,-0.668,-0.1901,0.6852,-0.2196,112.58,268.84,266.34,15.07
1106,-0.6278,-0.0692,0.7553,-0.1749,135.08,246.79,238.05,16.56
1107,-0.546,0.1241,0.8206,-0.1145,135.2,187.9,168.09,16.6
1108,-0.543,0.1887,0.8181,-0.0161,126.89,156.45,139.34,19.11
1109,-0.6105,0.1504,0.7754,-0.0589,149.35,159.57,142.39,19.53
1110,-0.6941,0.1718,0.6744,-0.1842,176.23,342.46,313.29,17.02
1111,-0.749,0.2379,0.5721,-0.2346,151.24,20.75,341.39,18.98
1112,-0.8994,0.2173,0.2924,-0.2417,78.24,18.76,336.64,19.35
1113,-0.9337,0.2772,-0.0701,-0.2154,358.68,33.22,333.83,18.71
1114,-0.8496,0.4622,-0.1831,-0.1764,342.96,59.24,331.69,18.5
1115,-0.831,0.4518,-0.286,-0.1534,320.66,62.96,326.96,18.77
1116,-0.7848,0.4397,-0.436,-0.0276,277.4,71.91,325.39,20.0
1117,-0.6235,0.4797,-0.6165,0.0322,253.81,111.54,293.32,17.46
1118,-0.5969,0.4757,-0.6435,-0.0579,269.02,113.6,283.63,17.46
1119,-0.4238,0.5894,-0.4978,-0.4744,15.78,101.08,273.14,16.86
1120,-0.0543,0.5794,-0.1885,-0.7911,127.34,54.52,223.33,19.4
1121,0.2486,0.525,-0.0781,-0.8102,125.63,342.87,135.37,18.37
1122,0.3685,0.4838,-0.0327,-0.7932,104.66,330.1,115.22,18.19
1123,0.3594,0.4806,0.0714,-0.7967,91.2,318.98,113.56,18.62
1124,0.2899,0.4973,0.1518,-0.8035,90.65,310.78,118.66,15.33
1125,0.2952,0.4975,0.2735,-0.7685,74.19,296.46,114.5,16.48
1126,0.148,0.5341,0.397,-0.7316,83.2,278.78,121.04,16.35
1127,0.0008,0.5578,0.363,-0.7464,112.63,281.87,132.92,17.32
1128,-0.0611,0.605,0.2059,-0.7667,144.69,307.15,149.17,14.43
1129,-0.212,0.6122,-0.0865,-0.7568,125.74,58.9,249.38,14.47
1130,-0.2873,0.5367,-0.4628,-0.6444,50.39,90.28,253.37,14.18
1131,-0.3528,0.3446,-0.81,-0.3173,318.69,125.97,236.71,15.65
1132,-0.3448,0.2253,-0.8897,-0.1971,296.71,143.53,219.09,17.35
1133,-0.3174,0.2358,-0.9106,-0.1201,297.14,154.43,216.34,14.79
1134,-0.3001,0.2579,-0.9178,0.0329,290.79,173.42,213.44,13.63
1135,-0.314,0.2938,-0.8897,0.1533,279.1,186.67,214.09,13.9
1136,-0.3201,0.3274,-0.8326,0.3116,265.03,207.24,210.77,13.32
1137,-0.2847,0.2814,-0.7504,0.526,267.34,245.67,190.24,14.77
1138,-0.2068,0.184,-0.6307,0.725,296.3,279.27,175.42,13.75
1139,-0.131,0.0349,-0.52,0.8433,337.5,297.75,169.15,15.29
1140,-0.0453,-0.1026,-0.3353,0.9354,18.6,319.83,171.05,13.54
1141,0.0059,-0.1521,-0.2568,0.9544,34.12,329.27,175.98,12.71
1142,0.0097,-0.199,-0.276,0.9403,44.61,326.16,174.32,11.01
1143,0.047,-0.2517,-0.1866,0.9485,59.35,337.65,179.69,12.07
1144,0.0803,-0.3214,-0.0643,0.9413,75.97,354.95,188.02,11.01
1145,0.0939,-0.3658,0.0415,0.925,83.97,11.28,195.93,12.43
1146,0.1035,-0.3772,0.0456,0.9192,86.32,12.83,197.94,13.18
1147,0.0724,-0.3773,0.024,0.9229,87.73,7.89,192.16,10.84
1148,0.0266,-0.3673,0.0337,0.9291,85.81,6.44,185.81,10.64
1149,-0.0326,-0.3255,0.1045,0.9392,76.38,12.88,180.49,11.64
1150,-0.1207,-0.2423,0.0872,0.9587,58.1,7.15,167.5,10.19
1151,-0.229,-0.164,0.0432,0.9585,39.05,0.46,153.2,9.7
1152,-0.2741,-0.1736,0.0899,0.9416,44.19,4.58,148.43,11.67
1153,-0.3139,-0.1624,0.0578,0.9337,39.7,0.36,142.9,8.65
1154,-0.2882,-0.1224,0.0207,0.9495,28.3,358.15,146.0,9.55
1155,-0.3049,-0.1572,0.0356,0.9386,36.94,358.25,143.72,12.16
1156,-0.34,-0.1936,0.0835,0.9165,48.61,1.35,139.58,9.87
1157,-0.4069,-0.1765,0.155,0.8828,51.92,8.31,132.43,10.13
1158,-0.5012,-0.1529,0.2001,0.8279,53.97,11.52,120.39,10.37
1159,-0.5447,-0.162,0.2106,0.7954,58.3,10.46,113.92,10.14
1160,-0.5971,-0.1708,0.1521,0.7689,52.76,1.91,104.78,11.41
1161,-0.6189,-0.2152,0.1064,0.7479,53.95,353.09,99.13,9.55
1162,-0.6291,-0.2587,0.0833,0.7282,57.59,346.53,94.88,10.21
1163,-0.6619,-0.2896,0.1044,0.6835,64.56,343.46,87.02,9.57
1164,-0.6614,-0.2525,0.0715,0.7026,53.4,344.85,89.84,9.78
1165,-0.6674,-0.1823,0.035,0.7212,36.08,348.3,92.57,9.24
1166,-0.6631,-0.1221,0.0665,0.7355,31.08,356.19,95.41,7.92
1167,-0.6146,-0.1018,0.017,0.7821,20.76,354.25,103.15,12.53
1168,-0.593,-0.0399,0.005,0.8042,8.03,357.75,107.11,8.79
1169,-0.5604,-0.0302,-0.022,0.8274,2.91,355.97,111.73,9.12
1170,-0.4745,-0.0379,-0.0943,0.8744,357.34,348.41,123.16,9.93
1171,-0.3927,-0.0486,-0.0834,0.9146,2.68,349.0,133.39,9.2
1172,-0.3084,-0.0334,-0.083,0.947,1.39,349.75,143.86,11.17
1173,-0.2395,0.0525,-0.0961,0.9647,343.05,350.68,152.81,10.49
1174,-0.2125,0.0695,0.0072,0.9747,344.79,2.52,155.23,10.29
1175,-0.174,0.0175,0.1291,0.9761,1.23,14.96,159.86,9.94
1176,-0.164,-0.0085,0.2483,0.9547,11.2,28.26,161.92,10.5
1177,-0.1113,-0.048,0.39,0.9128,20.1,45.42,170.31,10.39
1178,-0.0138,-0.0853,0.4681,0.8794,18.76,56.32,183.24,8.42
1179,0.0747,-0.0805,0.4566,0.8829,8.47,55.14,191.88,10.14
1180,0.1754,-0.0741,0.4593,0.8677,356.26,55.43,201.88,9.13
1181,0.2168,-0.0613,0.4985,0.8371,346.96,60.09,205.26,9.28
1182,0.2479,-0.0559,0.51,0.8218,341.46,61.32,208.08,8.62
1183,0.2682,-0.0167,0.4905,0.829,332.77,57.78,208.32,9.72
1184,0.248,-0.0164,0.5092,0.824,333.93,60.42,205.9,9.56
1185,0.2228,-0.054,0.4692,0.8528,346.56,56.1,205.7,8.58
1186,0.1697,-0.0972,0.3634,0.9109,6.17,44.11,202.35,8.24
1187,0.1114,-0.1811,0.3801,0.9002,27.93,48.3,200.39,9.81
1188,-0.003,-0.2284,0.3116,0.9224,50.09,39.26,188.68,10.62
1189,-0.2069,-0.1863,0.1571,0.9475,49.42,14.06,158.46,9.7
1190,-0.4909,0.0407,-0.0866,0.866,342.11,353.6,121.41,9.49
1191,-0.6657,0.4041,-0.2241,0.5859,258.96,25.67,70.43,10.13
1192,-0.683,0.6969,-0.1645,0.1443,309.59,91.61,357.96,10.89
1193,-0.5946,0.7766,-0.0482,-0.2028,29.86,102.6,340.91,13.37
1194,-0.5099,0.7699,0.0319,-0.3824,76.83,103.85,334.21,11.86
1195,-0.47,0.7728,0.0371,-0.4249,87.51,105.84,331.73,12.21
1196,-0.4535,0.8029,0.0748,-0.3797,85.3,114.11,342.25,13.62
1197,-0.5065,0.7979,0.1253,-0.3019,74.99,112.59,352.34,14.98
1198,-0.56,0.7905,0.1642,-0.186,57.11,110.22,3.34,12.84
1199,-0.6192,0.7409,0.1826,-0.1852,60.08,100.96,2.74,13.65
1200,-0.6502,0.6258,0.2453,-0.3541,99.32,81.44,346.28,12.51
1201,-0.568,0.5368,0.31,-0.5415,137.95,49.8,308.11,9.72
1202,-0.5711,0.5122,0.3516,-0.5365,144.05,42.32,305.0,13.25
1203,-0.6217,0.4714,0.3102,-0.5433,127.74,34.45,299.57,12.87
1204,-0.5616,0.3418,0.3547,-0.6648,117.05,350.33,254.96,11.0
1205,-0.4656,0.1731,0.4732,-0.7276,87.66,313.03,225.4,13.56
1206,-0.3033,0.0157,0.603,-0.7376,45.79,287.18,207.72,12.11
1207,-0.1568,-0.1168,0.7358,-0.6484,9.1,263.67,202.11,13.99
1208,-0.0377,-0.2535,0.8356,-0.4858,338.87,237.71,207.92,15.71
1209,0.1495,-0.4477,0.8313,-0.2937,298.49,204.36,229.82,16.09
1210,0.2877,-0.5866,0.7562,-0.0352,303.11,161.13,260.42,15.15
1211,0.2091,-0.6144,0.6581,0.3817,22.34,129.28,260.75,13.2
1212,0.2736,-0.532,0.6025,0.5283,26.88,107.48,253.01,15.03
1213,0.3903,-0.4469,0.6433,0.4838,352.01,103.16,252.75,16.08
1214,0.4797,-0.388,0.7138,0.3314,309.35,110.73,254.69,14.6
1215,0.4258,-0.4233,0.7534,0.2681,311.0,122.85,252.15,14.92
1216,0.3732,-0.4647,0.7863,0.1625,308.31,137.98,251.24,15.58
1217,0.2563,-0.5269,0.8098,0.0318,315.15,159.64,250.18,15.26
1218,0.1987,-0.5302,0.8069,-0.1681,300.15,184.01,245.54,16.35
1219,0.1184,-0.4535,0.7637,-0.4439,288.6,224.65,226.34,17.12
1220,0.0839,-0.3688,0.6558,-0.6533,287.41,260.55,207.66,16.35
1221,0.1044,-0.317,0.4754,-0.814,284.04,296.12,189.6,14.13
1222,0.1044,-0.2836,0.3287,-0.8948,289.63,319.67,179.97,11.58
1223,0.2123,-0.3026,0.1261,-0.9206,284.73,352.47,156.6,13.85
1224,0.3135,-0.2653,-0.1587,-0.8979,315.72,29.15,135.68,10.75
1225,0.3521,-0.2365,-0.1692,-0.8896,324.88,29.38,132.17,9.81
1226,0.3279,-0.2079,-0.0951,-0.9166,322.83,19.14,137.47,7.58
1227,0.259,-0.122,-0.1017,-0.9527,339.29,15.14,148.21,9.82
1228,0.1012,0.0365,-0.1149,-0.9875,10.93,12.74,168.91,10.1
1229,-0.1162,0.1989,-0.1372,-0.9634,41.14,19.37,197.3,9.14
1230,-0.3246,0.3263,-0.1946,-0.8662,52.07,37.65,230.1,9.16
1231,-0.4955,0.3909,-0.2211,-0.7435,42.47,50.2,257.4,7.54
1232,-0.6455,0.3839,-0.2713,-0.6019,12.86,55.84,277.41,7.38
1233,-0.7428,0.3923,-0.3398,-0.423,340.08,62.08,294.68,6.97
1234,-0.8348,0.3795,-0.3232,-0.2337,317.53,57.34,317.01,6.9
1235,-0.9041,0.2954,-0.2918,-0.1012,304.21,42.16,336.29,6.79
1236,-0.9023,0.1891,-0.3819,0.0647,268.93,24.63,357.73,3.74
1237,-0.8585,0.1585,-0.4383,0.2137,249.76,8.53,23.5,2.74
1238,-0.8231,0.097,-0.4616,0.3162,249.58,346.59,49.07,0.82
1239,-0.7767,0.0651,-0.4655,0.4193,257.89,332.6,70.01,2.52
1240,-0.7131,0.0719,-0.4937,0.4925,258.39,322.61,87.52,1.9
1241,-0.6649,0.0942,-0.5,0.5469,259.68,318.84,98.81,1.67
1242,-0.6238,0.1136,-0.5004,0.5895,261.38,316.56,107.48,359.58
1243,-0.5778,0.1253,-0.5415,0.5977,258.3,307.25,118.47,359.38
1244,-0.4889,0.1032,-0.6072,0.6178,267.7,290.39,136.29,2.83
1245,-0.4283,0.0613,-0.6414,0.6336,282.33,282.58,143.43,2.45
1246,-0.2374,0.0272,-0.6214,0.7461,320.78,283.9,160.1,0.8
1247,0.0161,0.0956,-0.6717,0.7344,346.36,274.58,188.8,2.31
1248,0.1962,0.0311,-0.6246,0.7553,22.85,282.84,200.0,0.6
1249,0.2941,0.1195,-0.6465,0.6937,24.78,277.97,215.16,2.14
1250,0.3431,0.2452,-0.6634,0.6181,17.49,269.97,229.32,359.61
1251,0.3285,0.4143,-0.6809,0.5067,3.15,254.29,243.83,3.96
1252,0.2761,0.5242,-0.7144,0.3724,0.47,235.23,252.66,2.9
1253,0.2223,0.541,-0.7781,0.2291,11.26,216.87,251.5,3.04
1254,0.2627,0.4916,-0.8154,0.1562,31.91,212.25,246.81,3.93
1255,0.4005,0.5007,-0.7626,0.0859,63.31,218.7,257.95,5.29
1256,0.4788,0.2579,-0.8311,-0.1162,117.69,185.97,217.85,4.21
1257,0.4704,-0.137,-0.8312,-0.2629,90.46,126.53,137.58,5.12
1258,0.4724,-0.4851,-0.6732,-0.2972,40.68,113.7,95.08,9.46
1259,0.4862,-0.6613,-0.5533,-0.1422,40.97,121.31,68.24,9.4
1260,0.4981,-0.7329,-0.4537,0.0941,72.3,127.01,45.03,10.16
1261,0.3942,-0.7945,-0.3382,0.3146,100.08,139.9,26.78,11.35
1262,0.2291,-0.8542,-0.295,0.3617,97.72,164.3,30.93,9.4
1263,0.0537,-0.8925,-0.2237,0.3879,91.52,186.39,30.85,11.61
1264,-0.1058,-0.8172,-0.1002,0.5576,125.79,218.67,38.19,10.68
1265,-0.2079,-0.7088,-0.073,0.6702,133.74,267.76,76.59,13.13
1266,-0.3189,-0.7073,-0.0446,0.6293,119.04,269.49,66.29,12.86
1267,-0.3934,-0.6876,0.0672,0.6065,124.99,275.63,56.45,13.22
1268,-0.4393,-0.6972,0.092,0.559,118.69,271.22,45.37,13.13
1269,-0.4556,-0.6559,0.1065,0.5923,121.87,283.91,55.43,14.78
1270,-0.4706,-0.6106,0.0844,0.6314,116.53,297.17,69.01,13.99
1271,-0.4541,-0.6237,0.0623,0.6332,115.65,293.72,69.05,15.29
1272,-0.4701,-0.6385,0.0125,0.6092,104.33,287.48,65.19,12.49
1273,-0.5133,-0.6245,-0.0736,0.5841,81.67,286.05,66.07,11.39
1274,-0.5235,-0.6057,-0.0983,0.5911,75.65,288.21,69.09,13.76
1275,-0.5512,-0.5896,-0.1471,0.5718,61.61,287.73,69.36,10.19
1276,-0.5904,-0.5774,-0.2368,0.5118,36.3,283.45,67.48,12.4
1277,-0.5892,-0.5926,-0.3216,0.4453,17.12,275.27,66.35,13.99
1278,-0.4798,-0.6823,-0.3595,0.4184,26.12,258.79,66.31,12.49
1279,-0.2998,-0.7736,-0.3157,0.4604,63.07,242.29,63.76,15.24
1280,-0.1944,-0.7684,-0.1444,0.5924,117.36,244.66,60.45,11.79
1281,-0.0334,-0.6125,0.1785,0.7693,145.24,51.48,214.05,13.76
1282,0.0159,-0.4936,0.2428,0.835,109.48,46.85,207.46,12.16
1283,0.0847,-0.5177,0.319,0.7893,99.5,66.23,225.91,11.53
1284,-0.0231,-0.5584,-0.0342,0.8285,134.96,347.56,168.47,12.4
1285,-0.1555,-0.5567,-0.2779,0.7673,100.31,290.63,121.19,14.47
1286,-0.1676,-0.6301,-0.3834,0.6542,88.18,262.96,102.05,14.44
1287,-0.1265,-0.7283,-0.3688,0.5636,93.38,240.98,82.22,14.44
1288,-0.0517,-0.8547,-0.2935,0.425,88.25,208.07,49.47,12.76
1289,-0.0236,-0.947,-0.0932,0.3064,70.34,187.15,13.52,12.76
1290,0.0349,-0.9466,0.0143,0.3203,74.51,174.57,356.43,12.76
1291,0.071,-0.9255,0.0726,0.3648,83.36,165.7,345.56,12.82
1292,0.1861,-0.8343,0.1114,0.5068,107.07,134.56,320.94,11.21
1293,0.3773,-0.6657,0.1449,0.6273,93.09,84.02,284.4,12.38
1294,0.4623,-0.537,0.1034,0.698,81.7,57.9,270.31,12.38
1295,0.4979,-0.4498,0.0469,0.74,76.5,41.2,262.72,8.34
1296,0.552,-0.2402,0.022,0.7982,42.1,18.77,252.85,8.34
1297,0.5486,-0.0188,0.0032,0.8359,3.2,1.49,246.57,8.34
1298,0.5475,-0.0447,-0.0179,0.8354,10.83,1.09,246.54,10.21
1299,0.4498,-0.1817,-0.1206,0.8661,50.08,357.13,234.25,4.19
1300,0.2816,-0.4496,-0.2124,0.8206,118.09,349.31,211.81,0.93
1301,-0.1792,-0.6024,-0.2479,0.7372,106.15,284.58,110.45,0.93
1302,-0.6437,-0.4637,-0.1883,0.579,34.25,301.48,74.3,0.26
1303,-0.8553,-0.3131,0.0521,0.4094,40.42,328.31,45.37,0.26
1304,-0.7856,-0.4709,0.3092,0.2558,93.24,302.13,9.27,0.26
1305,-0.438,-0.8306,0.3413,-0.0428,26.33,231.01,321.63,359.35
1306,-0.4898,-0.1855,-0.6069,-0.5979,250.59,70.31,218.61,15.26
1307,-0.5227,0.0106,-0.511,-0.6823,297.36,56.02,237.95,15.26
1308,-0.4113,0.0834,-0.5247,-0.7406,324.11,62.76,227.08,13.19
1309,-0.335,0.0349,-0.754,-0.564,304.47,99.06,209.11,13.19
1310,-0.1778,0.0652,-0.9719,-0.1397,321.77,161.83,190.77,13.19
1311,0.0485,-0.0173,-0.8929,0.4472,11.71,233.25,180.72,14.16
1312,0.3384,-0.3586,-0.4884,0.7199,115.76,299.98,194.93,14.16
1313,-0.0448,0.6844,0.4279,-0.5886,115.13,235.58,96.33,25.28
1314,-0.0207,0.6086,0.4552,-0.6496,108.11,254.67,116.11,25.28
1315,-0.0159,0.3203,0.5297,-0.7852,62.64,285.87,158.4,24.05
1316,-0.0969,0.0189,0.5592,-0.8232,16.03,292.19,188.04,24.05
1317,-0.0623,-0.4994,0.4947,-0.7084,279.52,270.87,229.74,21.32
1318,0.1046,-0.8829,0.3309,-0.3162,282.26,181.8,318.28,21.32
1319,0.2728,-0.9217,0.2412,0.1335,13.14,145.18,328.6,21.32
1320,-0.7658,0.0773,0.3345,-0.5439,73.21,342.19,283.3,18.51
1321,-0.681,-0.104,0.4393,-0.5766,57.16,312.42,266.68,22.98
1322,-0.6099,-0.2049,0.5291,-0.5532,49.5,293.09,259.08,22.98
1323,-0.5699,-0.234,0.6191,-0.487,57.07,278.11,254.08,22.98
1324,-0.5966,-0.2132,0.653,-0.415,74.06,274.04,255.69,19.54
1325,-0.603,-0.22,0.6706,-0.3718,80.35,270.28,256.69,19.54
1326,-0.6085,-0.205,0.7138,-0.2795,97.89,260.97,254.52,21.46
1327,-0.5269,0.7864,0.2315,0.2244,347.49,110.25,37.18,24.24
1328,-0.6019,0.7208,0.1812,0.2922,336.55,96.14,38.76,24.24
1329,-0.6583,0.6446,0.0422,0.3863,307.47,79.38,38.89,22.73
1330,-0.7009,0.6345,-0.0252,0.3249,306.81,77.49,28.27,22.73
1331,-0.6679,0.7193,0.1865,0.0414,21.85,96.1,19.24,19.01
1332,-0.6969,0.6694,0.2553,0.0321,36.47,91.61,24.02,19.01
1333,-0.7426,0.6359,0.1269,0.1673,357.21,80.85,24.21,19.01
1334,-0.7701,0.2808,-0.3446,0.4575,256.07,10.97,56.07,21.55
1335,-0.7907,0.3025,-0.2563,0.4664,273.13,19.25,53.34,22.42
1336,-0.8185,0.3075,-0.2395,0.4221,278.67,23.4,45.79,22.42
1337,-0.8033,0.3309,-0.1969,0.4543,283.8,26.62,49.64,22.42
1338,-0.769,0.3173,-0.2103,0.5135,279.01,20.96,59.66,22.47
1339,-0.7407,0.2621,-0.277,0.5531,271.1,6.58,70.81,22.47
1340,-0.6829,0.1496,-0.3922,0.5978,268.79,337.77,91.84,19.68
1341,-0.1037,-0.2382,-0.9242,0.2801,353.32,214.61,150.06,25.24
1342,-0.2156,-0.1756,-0.9209,0.2731,324.93,217.36,152.44,25.24
1343,-0.3382,-0.1752,-0.8864,0.2632,299.03,222.76,145.46,25.24
1344,-0.4332,-0.1906,-0.8395,0.2668,282.54,231.82,135.04,22.86
1345,-0.4945,-0.2105,-0.7852,0.3075,279.36,245.03,123.64,22.86
1346,-0.4738,-0.2307,-0.7927,0.3066,284.87,242.74,124.12,22.0
1347,-0.3953,-0.2191,-0.8594,0.239,289.83,225.54,136.28,22.0
1348,0.7222,0.0595,-0.6616,-0.1925,156.26,55.19,75.83,24.37
1349,0.7616,0.0355,-0.5986,-0.2459,136.6,40.55,63.93,24.37
1350,0.8055,0.0318,-0.5435,-0.2339,125.88,26.5,48.79,23.94
1351,0.819,0.023,-0.5415,-0.1883,127.19,21.95,39.61,23.94
1352,0.8327,0.0598,-0.5254,-0.1644,126.92,9.42,28.17,20.92
1353,0.8543,0.0247,-0.4571,-0.2462,104.97,17.48,40.83,20.92
1354,0.8041,-0.0667,-0.3984,-0.4362,71.25,34.02,68.19,20.92
1355,0.7369,0.0963,0.0141,-0.6689,12.41,350.7,83.95,21.55
1356,0.7216,0.1449,0.0604,-0.6743,12.43,343.01,85.19,22.32
1357,0.7115,0.2522,0.2184,-0.6184,0.14,321.03,81.97,22.32
1358,0.7567,0.2279,0.2872,-0.5414,338.35,318.11,75.32,19.27
1359,0.8031,0.1057,0.2894,-0.51,318.16,330.14,70.47,19.27
1360,0.7829,0.0518,0.204,-0.5854,330.01,340.65,76.15,19.27
1361,0.7518,-0.0381,0.1432,-0.6425,329.36,352.45,82.05,18.31
1362,0.7364,-0.0663,0.0802,-0.6685,336.15,359.44,84.53,24.19
1363,0.771,-0.0903,-0.016,-0.6302,349.78,9.21,78.11,19.91
1364,0.7692,-0.0503,-0.0579,-0.6344,2.88,8.68,79.13,19.91
1365,0.734,-0.1086,-0.0287,-0.6698,348.14,11.48,84.17,19.91
1366,0.7547,-0.1615,0.0094,-0.6358,334.64,13.74,78.7,21.55
1367,0.8734,-0.1139,0.1392,-0.4526,319.49,4.47,53.98,21.55
1368,0.934,-0.0883,0.1985,-0.2835,310.22,3.31,33.04,21.55
1369,0.9587,-0.0951,0.1805,-0.1982,314.87,6.9,21.98,20.47
1370,0.959,-0.0519,0.2597,-0.1007,298.86,3.14,11.13,20.16
1371,0.9014,0.0045,0.4184,-0.1113,262.24,351.15,18.11,20.16
1372,0.9086,0.02,0.3963,-0.13,268.7,348.5,21.13,21.67
1373,0.8918,0.1391,0.3644,-0.2293,288.23,329.18,39.04,21.67
1374,0.8456,0.1778,0.3977,-0.3084,291.48,318.65,53.35,21.67
1375,0.8025,0.1444,0.5235,-0.2473,259.51,309.9,58.97,19.39
1376,0.6766,-0.0576,0.7223,-0.1314,194.08,245.94,129.45,19.78
1377,0.5249,0.0748,0.8341,-0.1522,242.94,219.55,146.97,19.78
1378,0.312,0.3072,0.8901,-0.1268,302.97,208.36,134.56,22.99
1379,0.1316,0.3354,0.926,-0.1128,340.64,197.55,138.68,22.99
1380,-0.0269,0.4326,0.9,-0.0454,10.07,183.36,128.8,22.99
1381,-0.0784,0.3785,0.9217,-0.0338,19.58,180.18,135.36,20.33
1382,0.0347,0.2047,0.9647,-0.1618,359.92,199.05,156.04,20.33
1383,0.0354,0.0756,0.9738,-0.2117,355.76,204.7,170.66,19.41
1384,0.0569,-0.0207,0.9714,-0.2294,346.22,206.53,180.82,22.41
1385,0.0874,-0.1259,0.9503,-0.2709,332.9,210.47,191.39,22.41
1386,0.1225,-0.1875,0.9174,-0.3289,319.25,216.5,196.32,22.41
1387,0.2248,-0.269,0.8737,-0.3372,289.9,214.89,202.89,20.0
1388,0.3051,-0.3864,0.8256,-0.2758,268.41,198.36,222.36,20.0
1389,0.2952,-0.4013,0.825,-0.2668,270.96,196.57,225.06,20.0
1390,0.2183,-0.4145,0.8537,-0.2273,291.72,194.49,227.33,17.69
1391,0.1095,-0.3764,0.8902,-0.2321,316.6,200.86,221.8,21.39
1392,-0.0526,-0.229,0.9457,-0.2247,359.61,206.68,207.18,21.39
1393,-0.3102,0.0631,0.9414,-0.1164,73.56,192.99,176.67,21.39
1394,-0.492,0.1284,0.8609,-0.0138,116.59,168.74,156.73,20.37
1395,-0.5971,0.1281,0.7905,0.0464,137.54,141.32,134.57,20.37
1396,-0.6152,-0.0108,0.7849,0.0738,150.58,156.16,163.07,18.66
1397,-0.4659,-0.2462,0.8434,0.1052,113.77,185.46,215.5,19.43
1398,-0.3352,-0.3138,0.8794,0.1258,83.9,179.16,218.95,19.43
1399,-0.3479,-0.3142,0.8709,0.1474,88.63,176.94,218.44,19.43
1400,-0.405,-0.3644,0.8292,0.1247,99.39,187.86,231.09,18.54
1401,-0.3683,-0.4203,0.8178,0.1379,91.81,186.94,237.34,18.54
1402,-0.4588,-0.3563,0.8037,0.1289,112.06,192.38,234.42,16.65
1403,-0.5695,-0.2057,0.7888,0.1052,140.71,191.73,217.52,16.65
1404,-0.6597,0.0488,0.7493,0.0287,160.78,139.95,138.32,15.28
1405,-0.7904,0.1716,0.5863,0.0451,131.4,51.96,41.47,15.28
1406,-0.8678,0.2313,0.4302,-0.0913,104.16,31.69,3.77,18.84
1407,-0.9132,0.1795,0.3185,-0.1799,80.52,16.23,343.69,18.84
1408,-0.8101,0.4057,0.0509,-0.42,50.09,42.72,315.12,18.84
1409,-0.6189,0.3594,-0.2196,-0.663,23.63,48.76,271.43,15.58
1410,-0.5672,0.3234,-0.1438,-0.7437,37.07,37.77,261.05,15.58
1411,-0.577,0.3043,-0.2474,-0.7164,17.33,45.54,261.33,14.74
1412,-0.4198,0.3914,-0.477,-0.6656,13.85,76.1,249.91,14.74
1413,-0.4405,0.4337,-0.5398,-0.5714,2.29,87.65,256.36,14.74
1414,-0.4912,0.3967,-0.5231,-0.5724,353.14,82.05,258.28,14.74
1415,-0.6322,0.1777,-0.3274,-0.6794,340.14,42.83,261.97,15.97
1416,-0.6005,0.3461,-0.424,-0.5829,347.87,66.23,267.75,15.97
1417,-0.6239,0.391,-0.3776,-0.5615,356.33,65.85,274.84,14.27
1418,-0.4584,0.5247,-0.5791,-0.4234,350.07,102.84,268.33,15.15
1419,-0.2925,0.5981,-0.728,-0.1636,333.39,142.82,263.31,15.42
1420,-0.0541,0.5798,-0.7951,0.1694,327.18,192.43,250.41,14.23
1421,0.2165,0.5434,-0.642,0.4957,329.77,244.55,250.92,14.91
1422,0.4845,0.4996,-0.3892,0.6035,333.9,281.72,268.16,15.92
1423,0.7478,0.5119,-0.0219,0.4222,312.9,301.21,314.5,15.21
1424,0.7512,0.5094,0.3133,0.2792,261.91,295.74,351.2,18.49
1425,0.4693,0.6163,0.3046,0.5542,208.61,282.81,324.13,16.2
1426,0.3779,0.513,0.4715,0.6097,201.84,81.17,173.04,17.41
1427,0.2226,0.3678,0.5948,0.6793,260.28,88.05,167.9,16.55
1428,-0.0073,0.1006,0.6717,0.7339,344.15,85.52,171.54,17.13
1429,-0.1199,-0.1133,0.6623,0.7309,37.85,84.11,178.47,14.74
1430,-0.2022,-0.2474,0.6504,0.6891,74.32,87.73,183.1,15.03
1431,-0.2551,-0.3888,0.6277,0.6243,107.36,98.78,196.64,14.15
1432,-0.2451,-0.4762,0.5788,0.6149,120.78,104.49,210.38,15.75
1433,-0.1633,-0.4641,0.5167,0.7007,109.99,86.46,205.91,17.13
1434,-0.1389,-0.4441,0.4475,0.7637,106.76,69.9,198.11,16.87
1435,-0.062,-0.4477,0.4085,0.793,99.05,65.87,204.33,16.52
1436,-0.0279,-0.5305,0.3804,0.757,111.07,74.88,219.68,17.49
1437,-0.0152,-0.5907,0.3681,0.7179,118.48,86.5,233.85,18.43
1438,-0.0161,-0.6411,0.3571,0.6791,123.83,99.42,247.86,18.13
1439,0.0046,-0.7281,0.3157,0.6085,124.03,123.58,277.37,18.53
1440,0.0023,-0.7704,0.2967,0.5643,120.48,137.0,292.12,19.63
1441,-0.0026,-0.5857,0.3484,0.7318,118.43,82.0,232.17,17.83
1442,0.0781,-0.6736,0.3281,0.6577,113.19,102.88,261.61,17.73
1443,0.1216,-0.7064,0.2778,0.6395,113.45,106.13,272.89,20.0
1444,0.0598,-0.7259,0.2576,0.635,125.99,114.25,277.71,17.52
1445,-0.0012,-0.7129,0.2319,0.6618,141.53,112.13,272.88,16.87
1446,-0.0159,-0.686,0.2025,0.6986,149.59,95.1,257.17,17.87
1447,-0.041,-0.7091,0.2094,0.6721,151.99,112.68,272.13,18.49
1448,-0.0631,-0.7471,0.211,0.6272,149.05,140.32,297.77,17.03
1449,-0.0652,-0.6858,0.1903,0.6995,159.58,94.21,253.32,18.03
1450,-0.0726,-0.6723,0.1772,0.7151,161.67,77.95,237.54,18.74
1451,-0.1132,-0.7185,0.1689,0.6652,167.5,145.28,302.24,18.69
1452,-0.1566,-0.7985,0.1578,0.5594,141.07,192.74,346.67,17.79
1453,-0.1643,-0.836,0.124,0.5087,126.06,199.12,354.92,17.39
1454,-0.1698,-0.8526,0.0964,0.4847,118.46,202.55,0.03,19.54
1455,-0.1821,-0.8334,0.08,0.5155,125.37,208.81,6.81,18.0
1456,-0.1692,-0.8413,0.0614,0.5097,122.9,207.71,8.34,17.97
1457,-0.1519,-0.8697,0.0646,0.4652,111.94,201.38,2.96,19.08
1458,-0.1066,-0.92,0.0388,0.3752,88.64,193.5,0.69,16.33
1459,-0.0679,-0.9516,0.0345,0.2979,69.73,187.62,358.25,18.28
1460,-0.0501,-0.9731,0.0408,0.2213,51.54,185.06,356.35,17.28
1461,-0.0263,-0.9941,0.0444,0.0951,22.06,182.56,355.13,19.07
1462,-0.0082,-0.9996,0.026,0.0074,1.73,180.92,357.02,17.79
1463,0.0079,-0.9954,0.0147,-0.094,338.41,179.25,358.38,17.05
1464,0.0142,-0.9921,-0.0061,-0.1243,331.47,178.25,0.92,19.27
1465,0.0422,-0.9818,-0.0276,-0.1832,318.12,174.29,4.28,19.09
1466,0.0841,-0.9502,-0.0564,-0.2946,293.21,166.63,10.81,16.85
1467,0.121,-0.8929,-0.0858,-0.4251,264.82,154.62,22.32,18.89
1468,0.1147,-0.8534,-0.1101,-0.4965,249.41,147.6,32.02,19.21
1469,0.1042,-0.8517,-0.0912,-0.5053,245.34,150.02,28.88,18.18
1470,0.0957,-0.8417,-0.098,-0.5222,241.28,148.87,31.32,17.51
1471,0.0798,-0.8431,-0.0886,-0.5244,239.07,152.52,28.22,20.0
1472,0.0692,-0.8734,-0.0647,-0.4777,248.72,161.12,18.51,17.93
1473,0.0577,-0.899,-0.0636,-0.4296,260.19,165.77,14.74,17.87
1474,0.0449,-0.9338,-0.0622,-0.3495,279.36,170.38,11.16,17.56
1475,0.0355,-0.9657,-0.0533,-0.2518,302.3,173.75,7.93,20.19
1476,0.0351,-0.9851,-0.0419,-0.1631,322.86,174.99,5.69,18.34
1477,0.0484,-0.9904,-0.0395,-0.1234,332.14,173.76,5.33,18.64
1478,0.0494,-0.9948,-0.0324,-0.0826,341.44,173.97,4.22,17.93
1479,0.047,-0.9979,-0.0311,-0.0314,353.16,174.49,3.74,18.43
1480,0.0465,-0.9948,-0.0388,0.0824,19.3,174.99,4.04,18.28
1481,0.0345,-0.9701,-0.0635,0.2316,53.96,177.58,6.92,18.53
1482,0.0306,-0.9365,-0.0593,0.3442,80.84,178.76,6.79,19.87
1483,0.0427,-0.9355,-0.0336,0.3492,82.01,175.7,2.5,18.49
1484,0.0418,-0.9368,-0.0153,0.3471,81.31,174.88,359.97,18.24
1485,0.0262,-0.932,0.0074,0.3615,84.67,175.8,357.47,18.59
1486,0.0216,-0.9295,0.0237,0.3674,86.0,175.49,355.31,19.53
1487,0.0373,-0.9314,0.0249,0.3612,84.28,173.22,354.32,17.83
1488,0.0557,-0.934,0.0244,0.3521,81.84,170.77,353.56,19.97
1489,0.0667,-0.9299,0.0218,0.361,83.9,169.17,353.14,18.63
1490,0.0708,-0.9194,0.0151,0.3866,90.27,168.39,353.28,19.24
1491,0.0852,-0.9115,0.0053,0.4023,94.19,166.44,353.4,18.18
1492,0.1066,-0.9121,-0.002,0.3958,92.52,163.81,353.3,18.09
1493,0.1206,-0.9171,-0.0116,0.3797,88.74,162.71,354.35,18.34
1494,0.127,-0.9311,-0.0205,0.3413,79.69,163.16,356.38,18.89
1495,0.1586,-0.9677,-0.0122,0.1954,44.91,160.91,357.62,16.94
1496,0.1852,-0.9822,0.0059,0.0302,6.55,158.61,358.7,19.33
1497,0.1684,-0.9854,0.0241,-0.0075,357.37,160.63,357.43,18.89
1498,0.1303,-0.9909,0.0312,0.0093,1.18,165.0,356.31,18.29
1499,0.0972,-0.9948,0.028,-0.0105,356.99,168.88,356.92,18.24
1500,0.0693,-0.996,0.0177,-0.0542,347.31,172.13,358.4,19.53
1501,0.0473,-0.9926,-0.0023,-0.1116,334.42,174.44,0.89,18.78
1502,0.0219,-0.9876,-0.0215,-0.1539,324.73,177.0,2.96,17.73
1503,0.0108,-0.9837,-0.0302,-0.1768,319.38,178.05,3.86,19.54
1504,0.0058,-0.9873,-0.04,-0.1539,324.67,178.58,4.86,18.28
1505,-0.0304,-0.9975,-0.0635,0.0076,1.29,183.54,7.31,18.79
1506,-0.0766,-0.95,-0.0838,0.2909,65.36,193.35,14.02,17.31
1507,-0.0972,-0.8573,-0.0617,0.5018,116.07,205.57,22.59,19.79
1508,-0.1282,-0.7904,-0.0247,0.5986,140.05,222.82,34.3,18.84
1509,-0.1502,-0.7076,0.0397,0.6893,161.83,268.37,72.89,17.69
1510,-0.1367,-0.7023,0.0636,0.6957,168.11,272.97,76.66,18.79
1511,-0.1355,-0.7318,0.1054,0.6595,167.3,212.44,12.79,17.55
1512,-0.1394,-0.7738,0.1413,0.6016,152.02,190.89,347.82,18.43
1513,-0.1448,-0.7977,0.1549,0.5646,142.02,189.92,345.11,18.08
1514,-0.1407,-0.8398,0.1691,0.4963,123.57,188.32,342.21,18.38
1515,-0.1375,-0.8874,0.1885,0.3975,98.46,188.3,339.83,18.98
1516,-0.1276,-0.9104,0.208,0.3342,82.83,187.15,336.97,17.05
1517,-0.1175,-0.9244,0.2152,0.2922,72.44,186.51,335.93,19.24
1518,-0.1139,-0.9427,0.1981,0.2431,60.46,187.88,338.4,17.9
1519,-0.1061,-0.959,0.1735,0.1975,49.12,188.53,341.35,18.73
1520,-0.0923,-0.9648,0.1471,0.1976,48.21,187.55,344.28,16.67
1521,-0.0907,-0.9702,0.1066,0.198,47.59,188.41,349.24,16.61
1522,-0.0985,-0.9673,0.0676,0.2236,52.96,190.32,354.44,18.83
1523,-0.1125,-0.9633,0.025,0.2425,56.44,193.43,0.42,17.63
1524,-0.1138,-0.9605,-0.0054,0.254,58.26,194.68,4.48,19.79
1525,-0.1068,-0.9523,-0.013,0.2857,65.56,194.52,5.86,19.15
1526,-0.0989,-0.9425,-0.0253,0.3181,72.97,194.59,7.9,18.18
1527,-0.0909,-0.9061,-0.0242,0.4125,96.0,196.03,10.24,19.71
1528,-0.0862,-0.794,0.0143,0.6016,146.6,204.59,16.36,17.73
1529,-0.0848,-0.4975,0.0725,0.8602,120.51,4.68,171.45,18.89
1530,-0.0638,-0.0378,0.1488,0.9861,10.74,16.85,173.39,18.43
1531,-0.0019,0.5339,0.1652,0.8293,235.55,36.33,157.33,20.08
1532,0.0504,0.8976,0.1494,0.4116,262.12,177.16,20.2,18.74
1533,0.0787,0.9874,0.1369,-0.004,358.44,189.01,15.72,19.38
1534,0.0926,0.8864,0.1101,-0.4401,98.88,203.67,25.18,18.59
1535,0.0497,0.6921,0.0935,-0.714,156.49,276.95,100.52,19.94
1536,0.0123,0.3337,0.0635,-0.9404,77.53,350.57,175.17,19.83
1537,-0.0091,-0.1084,-0.0037,-0.9941,335.1,0.32,181.02,23.05
1538,0.0061,-0.4497,-0.0785,-0.8897,253.88,13.98,172.2,21.67
1539,0.0555,-0.5073,-0.1406,-0.8484,244.61,33.48,153.7,21.24
1540,0.1208,-0.6526,-0.2253,-0.7133,237.55,84.43,104.32,20.69
1541,0.2155,-0.6983,-0.2164,-0.6473,251.65,96.77,83.3,20.13
1542,0.3226,-0.7388,-0.2098,-0.5533,273.99,104.22,65.8,19.08
1543,0.4476,-0.7405,-0.1745,-0.4701,294.64,100.78,53.79,20.71
1544,0.5968,-0.6747,-0.0961,-0.4236,305.63,85.42,45.57,19.55
1545,0.756,-0.5827,-0.0215,-0.2975,323.38,70.31,30.01,19.3
1546,0.8813,-0.4248,0.0879,-0.1874,323.38,48.93,15.62,18.49
1547,0.9598,-0.2498,0.1215,-0.0412,330.6,29.04,1.08,16.47
1548,0.9831,-0.0367,-0.1161,0.1365,27.58,2.39,344.48,14.66
1549,0.743,0.2317,-0.5768,0.248,95.84,289.82,288.4,14.79
1550,0.2102,0.4981,-0.8149,0.209,15.44,213.72,245.22,12.91
1551,-0.4159,0.6217,-0.6592,0.0772,279.79,147.1,278.96,13.66
1552,-0.8537,0.4763,-0.1953,-0.0781,329.96,60.88,340.69,12.34
1553,-0.9029,0.2257,0.3113,-0.1922,80.91,22.24,344.26,13.42
1554,-0.8578,0.0299,0.4905,-0.1506,116.54,349.44,334.19,15.98
1555,-0.9198,-0.1065,0.3562,-0.1257,77.87,338.47,336.75,9.89
1556,-0.9342,-0.2291,0.2325,-0.1439,43.26,327.83,336.19,10.73
1557,-0.8905,-0.3687,0.1997,-0.1766,26.05,311.72,331.71,6.13
1558,-0.8261,-0.4746,0.1984,-0.23,12.57,298.27,325.12,4.74
1559,-0.7441,-0.5703,0.2348,-0.2567,6.49,283.86,319.39,5.57
1560,-0.5838,-0.6473,0.4002,-0.2829,11.6,260.84,301.48,3.97
1561,-0.4284,-0.707,0.4857,-0.2841,1.65,241.86,291.52,2.0
1562,-0.3723,-0.6913,0.5567,-0.2712,4.53,234.82,283.48,4.74
1563,-0.2862,-0.6223,0.6898,-0.2346,11.8,223.12,266.45,7.41
1564,-0.0658,-0.4337,0.8603,-0.2597,347.14,210.47,231.76,4.11
1565,0.1713,-0.0592,0.9293,-0.3217,318.23,218.19,179.99,7.48
1566,0.3468,0.3102,0.8297,-0.3084,314.82,231.94,127.88,11.31
1567,0.4535,0.361,0.7221,-0.3776,315.03,250.82,110.79,6.76
1568,0.395,0.4168,0.4981,-0.6497,17.03,279.1,110.14,10.17
1569,0.3104,0.5026,0.435,-0.6796,48.8,277.34,109.37,8.02
1570,0.428,0.4542,0.3999,-0.6712,31.02,286.12,103.26,4.28
1571,0.518,0.3099,0.4951,-0.6249,345.57,288.68,105.87,7.06
1572,0.4884,0.0903,0.5942,-0.6326,304.43,288.29,124.93,8.32
1573,0.504,-0.1646,0.596,-0.6031,253.88,293.06,136.77,13.13
1574,0.5386,-0.2638,0.541,-0.5896,233.27,307.92,128.74,10.12
1575,0.5789,-0.2676,0.5223,-0.5661,229.63,317.87,116.39,9.74
1576,0.6522,-0.5572,0.4547,-0.2393,241.39,93.89,337.58,11.26
1577,0.5483,-0.6354,0.4959,-0.223,248.38,122.18,316.66,9.98
1578,0.4249,-0.658,0.5865,-0.2065,259.29,150.22,290.83,12.66
1579,0.2602,-0.6354,0.6938,-0.2173,280.84,177.83,265.74,11.31
1580,0.0363,-0.5531,0.7946,-0.2475,321.28,201.99,245.88,15.38
1581,-0.1454,-0.4068,0.8593,-0.2738,3.09,216.09,231.18,13.08
1582,-0.2385,-0.25,0.9047,-0.2493,35.74,216.82,216.89,13.85
1583,-0.2458,-0.1052,0.9438,-0.1944,50.05,207.52,198.95,16.75
1584,-0.1433,0.0214,0.9772,-0.1549,33.32,198.03,180.15,19.16
1585,-0.0028,0.1271,0.9822,-0.1386,4.66,195.77,165.58,17.62
1586,0.1033,0.201,0.9681,-0.1084,341.99,194.75,155.38,22.04
1587,0.1836,0.2446,0.9496,-0.0692,323.3,193.48,148.92,21.71
1588,0.2303,0.2736,0.933,-0.0389,311.77,192.57,144.62,19.06
1589,0.2558,0.2987,0.9191,-0.0261,305.93,193.03,140.85,20.93
1590,0.2858,0.3295,0.8997,-0.0197,299.84,194.99,135.72,20.08
1591,0.2906,0.3719,0.8815,-0.0143,299.78,196.2,129.87,23.52
1592,0.2847,0.4143,0.8643,-0.0151,302.68,197.38,124.31,22.58
1593,0.2764,0.4531,0.8472,-0.026,307.19,199.2,119.18,19.41
1594,0.2579,0.4883,0.8326,-0.043,314.39,200.54,115.04,22.66
1595,0.2464,0.5133,0.8184,-0.0782,322.31,203.73,111.82,20.36
1596,0.2285,0.5367,0.8022,-0.1272,333.4,207.5,109.17,19.15
1597,0.223,0.5516,0.7811,-0.1895,343.99,213.19,107.15,18.74
1598,0.2104,0.5676,0.7587,-0.2407,354.72,217.21,105.52,21.19
1599,0.2004,0.5827,0.7381,-0.2749,2.81,219.75,103.93,19.78
1600,0.195,0.6014,0.7166,-0.2947,8.6,221.21,101.6,20.36
1601,0.2139,0.6171,0.6864,-0.3199,11.6,224.97,98.49,22.14
1602,0.2449,0.6341,0.6574,-0.3253,10.38,227.84,94.38,18.43
1603,0.2676,0.6519,0.6374,-0.3116,7.46,228.4,90.39,19.26
1604,0.3025,0.7001,0.5881,-0.2692,2.42,227.77,80.6,20.64
1605,0.3842,0.7139,0.5012,-0.3026,5.38,238.52,71.65,20.91
1606,0.4197,0.7021,0.4502,-0.3582,14.38,246.79,70.08,20.21
1607,0.447,0.5323,0.3962,-0.5998,33.04,277.15,92.01,21.2
1608,0.5569,0.3592,0.2117,-0.7183,32.54,312.81,97.28,21.31
1609,0.624,0.12,-0.0035,-0.7721,21.87,351.55,101.3,20.22
1610,0.5865,-0.017,-0.044,-0.8086,2.75,5.23,108.15,19.94
1611,0.6196,-0.1718,-0.0549,-0.7639,337.58,17.61,100.17,22.66
1612,0.6648,-0.2948,-0.1119,-0.6772,330.99,34.15,86.59,22.38
1613,0.6348,-0.3977,-0.1869,-0.6355,328.88,50.42,82.7,23.89
1614,0.5516,-0.4676,-0.2616,-0.6393,323.96,63.39,87.24,22.25
1615,0.5474,-0.5198,-0.1476,-0.639,299.65,61.24,80.69,24.37
1616,0.4976,-0.5631,-0.0345,-0.6588,269.92,59.05,79.44,22.98
1617,0.4204,-0.5397,0.0815,-0.7248,243.39,39.71,97.0,23.35
1618,0.2672,-0.5667,0.0576,-0.7773,228.51,31.28,121.54,20.39
1619,0.1581,-0.5909,0.0671,-0.7882,215.34,15.49,145.96,22.71
1620,0.0365,-0.5354,0.087,-0.8393,230.33,345.43,184.31,21.8
1621,-0.0353,-0.6184,0.1005,-0.7786,214.16,317.03,217.62,24.86
1622,-0.1294,-0.7257,0.0587,-0.6732,211.74,257.3,288.48,25.53
1623,-0.193,-0.801,0.0422,-0.5652,234.48,231.23,321.37,21.31
1624,-0.2716,-0.7267,0.0319,-0.6301,232.06,262.37,297.68,23.7
1625,-0.2994,-0.577,0.0379,-0.759,242.88,309.42,252.73,22.83
1626,-0.2721,-0.4109,0.0213,-0.8698,270.62,338.49,223.68,23.94
1627,-0.4633,-0.1586,-0.0444,-0.8708,323.0,355.79,236.72,23.61
1628,-0.5332,-0.0955,-0.0384,-0.8397,336.77,357.81,245.05,24.72
1629,-0.4757,-0.1453,0.0274,-0.8671,333.89,349.01,238.76,26.32
1630,-0.3943,-0.1451,0.0155,-0.9074,330.92,351.54,228.05,21.8
1631,-0.4414,-0.1836,-0.03,-0.8778,319.16,353.3,234.6,23.74
1632,-0.4539,-0.3172,-0.0292,-0.8322,292.66,343.29,242.31,25.45
1633,-0.4973,-0.3858,-0.0148,-0.7769,284.21,332.79,254.75,22.51
1634,-0.5462,-0.3993,0.016,-0.7362,290.44,325.97,264.09,21.8
1635,-0.6045,-0.4034,0.0104,-0.6868,294.42,323.33,273.84,24.15
1636,-0.6206,-0.3922,-0.0003,-0.679,295.59,324.91,275.28,25.58
1637,-0.5839,-0.3748,-0.006,-0.7201,293.7,329.18,267.45,23.6
1638,-0.5346,-0.3598,-0.0218,-0.7644,290.03,334.61,258.05,24.02
1639,-0.5042,-0.3369,-0.061,-0.7928,286.87,342.39,250.77,22.47
1640,-0.4506,-0.2942,-0.0996,-0.8369,288.8,353.04,238.84,24.51
1641,-0.4136,-0.2905,-0.1016,-0.8569,288.83,355.33,233.03,22.89
1642,-0.4367,-0.2771,-0.1072,-0.8491,291.31,355.84,235.71,24.16
1643,-0.4296,-0.2459,-0.1006,-0.8631,298.56,357.49,233.61,24.98
1644,-0.4229,-0.2415,-0.0874,-0.869,300.84,356.55,232.8,22.16
1645,-0.4386,-0.2239,-0.0931,-0.8653,304.04,357.7,234.33,21.96
1646,-0.4445,-0.2008,-0.1016,-0.8671,307.98,359.85,234.32,22.68
1647,-0.4286,-0.2275,-0.0673,-0.8718,305.97,354.99,233.57,20.25
1648,-0.393,-0.2732,0.0695,-0.8753,309.88,338.21,233.26,23.23
1649,-0.36,-0.313,0.1918,-0.8577,312.99,322.8,233.55,23.96
1650,-0.3675,-0.3854,0.251,-0.8084,307.97,309.94,241.21,24.64
1651,-0.4159,-0.4478,0.2518,-0.7504,304.89,302.19,253.41,22.0
1652,-0.4211,-0.5372,0.2466,-0.6879,295.79,290.82,265.39,25.45
1653,-0.3931,-0.6028,0.2075,-0.6626,281.06,284.03,272.66,21.31
1654,-0.3474,-0.6214,0.188,-0.6766,269.49,282.89,271.11,22.47
1655,-0.2949,-0.5959,0.1878,-0.7229,262.67,289.38,259.9,23.23
1656,-0.2543,-0.5151,0.184,-0.7976,266.55,305.87,240.27,23.06
1657,-0.2028,-0.3722,0.1693,-0.8897,287.16,325.8,217.24,24.04
1658,-0.177,-0.1691,0.1161,-0.9626,326.95,342.8,203.35,22.74
1659,-0.0781,0.0798,0.0484,-0.9926,19.1,355.14,188.59,24.23
1660,-0.1587,0.3132,-0.0246,-0.936,70.68,10.27,202.53,22.38
1661,-0.3241,0.4946,-0.026,-0.806,102.61,35.44,241.26,24.65
1662,-0.3125,0.6154,-0.0274,-0.7231,121.58,60.39,264.43,22.68
1663,-0.2475,0.6612,-0.0424,-0.7069,132.08,72.52,269.57,20.41
1664,-0.207,0.6738,-0.0927,-0.7033,130.82,79.63,269.12,24.19
1665,-0.2167,0.646,-0.1167,-0.7226,124.0,72.88,261.24,21.06
1666,-0.2288,0.6468,-0.0726,-0.7239,129.16,69.14,262.14,24.42
1667,-0.1819,0.6449,-0.0697,-0.739,136.19,64.85,254.12,22.04
1668,-0.1129,0.6229,-0.1394,-0.7615,133.03,62.32,240.12,22.74
1669,-0.0815,0.5677,-0.2443,-0.7819,115.98,63.57,229.81,22.04
1670,-0.1961,0.4127,-0.1943,-0.868,79.62,40.53,220.7,22.87
1671,-0.3014,0.1657,-0.0456,-0.9379,32.92,11.14,217.25,26.02
1672,-0.4095,-0.0234,0.0586,-0.9101,0.62,352.78,228.43,22.87
1673,-0.3789,-0.233,0.1718,-0.879,327.55,330.1,231.0,20.98
1674,-0.3874,-0.3964,0.2386,-0.7974,306.87,309.74,244.47,20.83
1675,-0.3788,-0.4545,0.2984,-0.749,305.9,297.32,250.32,20.65
1676,-0.3906,-0.4591,0.3452,-0.7194,313.98,291.68,252.73,24.44
1677,-0.4197,-0.4757,0.379,-0.6738,322.33,285.96,258.1,24.42
1678,-0.4449,-0.4843,0.4524,-0.6024,339.15,277.1,262.11,24.64
1679,-0.472,-0.4708,0.5103,-0.5433,356.57,272.06,263.61,21.5
1680,-0.532,-0.4181,0.5153,-0.526,12.45,276.9,265.13,25.73
1681,-0.5596,-0.2935,0.4957,-0.5958,23.67,290.09,258.12,23.06
1682,-0.5589,-0.2358,0.5104,-0.6095,32.89,292.55,254.03,22.0
1683,-0.5116,-0.1745,0.5688,-0.6199,42.89,288.29,243.48,22.38
1684,-0.4147,-0.2021,0.6482,-0.6058,34.06,274.67,233.08,21.45
1685,-0.3828,-0.2582,0.6598,-0.5929,22.95,269.77,234.18,25.06
1686,-0.4046,-0.2059,0.593,-0.665,23.79,282.5,233.08,25.97
1687,-0.5047,-0.0828,0.4226,-0.7482,35.23,311.31,239.98,24.02
1688,-0.5479,-0.0282,0.2978,-0.7812,32.79,328.85,245.49,26.45
1689,-0.6168,0.0161,0.1561,-0.7713,25.12,346.91,255.85,24.93
1690,-0.6787,0.0582,0.022,-0.7318,13.21,2.7,265.84,24.14
1691,-0.7238,0.0822,-0.0912,-0.679,357.67,14.06,273.52,25.97
1692,-0.7479,0.1166,-0.2052,-0.6204,341.33,25.77,278.51,24.72
1693,-0.7487,0.1966,-0.3508,-0.5271,322.91,44.47,282.07,24.1
1694,-0.721,0.2711,-0.472,-0.4287,306.74,62.89,282.06,22.22
1695,-0.7396,0.2899,-0.4691,-0.3857,303.89,63.65,287.29,21.8
1696,-0.808,0.2627,-0.3633,-0.3823,314.56,49.58,298.76,19.87
1697,-0.9046,0.1621,-0.0664,-0.3886,0.68,20.18,313.56,22.0
1698,-0.7802,-0.0866,0.4624,-0.4122,81.1,317.19,287.82,20.65
1699,-0.4366,-0.2435,0.7668,-0.4026,56.53,250.46,235.4,22.68
1700,-0.3615,-0.2489,0.8063,-0.3967,45.35,242.65,228.22,23.39
1701,-0.5167,-0.1522,0.7376,-0.4072,79.33,259.95,236.97,22.31
1702,-0.5983,-0.073,0.6882,-0.4039,99.72,273.75,244.9,24.33
1703,-0.6737,0.0113,0.6133,-0.4121,113.38,296.78,260.36,24.68
1704,-0.7657,0.0849,0.4986,-0.3973,112.42,331.41,289.66,22.01
1705,-0.7913,0.0887,0.4595,-0.3935,105.69,338.51,296.34,23.23
1706,-0.7755,0.0386,0.4997,-0.384,107.15,326.95,290.28,21.18
1707,-0.7774,0.0201,0.4824,-0.4031,100.05,326.18,289.04,23.61
1708,-0.8241,0.0352,0.3882,-0.4109,83.96,339.45,299.05,19.54
1709,-0.831,0.0652,0.3452,-0.4312,78.1,345.89,300.12,23.74
1710,-0.8358,0.0693,0.3331,-0.431,76.12,347.43,301.09,22.04
1711,-0.8153,0.1504,0.2309,-0.5093,63.97,0.67,296.2,21.91
1712,-0.8547,0.1836,0.1283,-0.4682,46.07,12.16,305.06,23.27
1713,-0.8523,0.2014,0.0288,-0.4818,28.15,18.99,303.41,23.94
1714,-0.8425,0.2457,-0.1564,-0.4531,355.32,33.79,302.75,23.7
1715,-0.7947,0.2781,-0.3609,-0.4011,318.97,51.36,296.49,22.68
1716,-0.6754,0.3069,-0.5867,-0.3249,287.26,81.19,277.17,21.65
1717,-0.4531,0.3533,-0.7924,-0.2049,290.04,128.09,245.5,22.74
1718,-0.135,0.3761,-0.9142,-0.0673,337.38,166.76,226.04,20.61
1719,0.178,0.3566,-0.9148,0.0657,32.37,194.91,224.72,20.67
1720,0.34,0.3531,-0.8623,0.1267,59.6,211.91,233.24,23.04
1721,0.3567,0.4198,-0.8266,0.1149,59.11,214.24,243.14,17.17
1722,0.4168,0.2815,-0.8399,0.204,71.65,225.41,232.46,15.72
1723,0.4611,0.3256,-0.8006,0.201,74.82,231.55,242.83,18.14
1724,0.4952,0.342,-0.7736,0.1984,78.17,236.28,249.2,18.14
1725,0.5461,0.3245,-0.7345,0.2387,80.67,247.68,255.35,18.58
1726,0.6671,0.2622,-0.6243,0.3106,84.14,276.43,272.13,19.24
1727,0.781,0.1759,-0.4738,0.3669,75.33,308.16,290.85,18.65
1728,0.851,0.1021,-0.3368,0.3897,59.18,329.89,302.67,18.51
1729,0.8984,0.0459,-0.1774,0.3991,32.78,346.49,310.14,16.53
1730,0.9044,-0.0532,0.0847,0.4147,347.47,9.64,310.2,17.34
1731,0.7893,-0.1711,0.4267,0.4069,295.4,46.93,291.13,15.77
1732,0.5132,-0.2819,0.7416,0.3274,289.58,108.48,247.37,16.2
1733,0.1769,-0.3702,0.8942,0.1791,338.83,152.67,227.56,15.95
1734,-0.1323,-0.4181,0.8987,0.0033,27.84,186.2,230.66,17.03
1735,-0.5327,-0.391,0.7374,-0.1402,85.06,237.76,260.09,12.85
1736,-0.8544,-0.2579,0.4178,-0.1703,77.51,311.62,319.5,11.75
1737,-0.9757,-0.1136,-0.0441,-0.182,345.35,348.03,339.64,14.24
1738,-0.8816,0.056,-0.4333,-0.1785,263.84,22.29,327.06,12.05
1739,-0.6139,0.2062,-0.7489,-0.1401,240.95,114.07,251.48,13.76
1740,-0.1909,0.3351,-0.9201,-0.0677,324.38,164.62,222.45,12.26
1741,0.2232,0.3955,-0.8909,-0.0116,48.02,189.82,229.97,14.0
1742,0.5825,0.3934,-0.7098,0.0453,104.61,238.74,268.89,13.18
1743,0.851,0.3268,-0.3946,0.1152,73.21,306.28,325.56,14.15
1744,0.9605,0.2247,-0.0316,0.1609,358.67,333.77,341.13,14.78
1745,0.9346,0.1292,0.2788,0.179,290.87,350.09,341.41,13.52
1746,0.8214,0.0197,0.5464,0.1624,230.6,19.84,324.99,14.18
1747,0.6173,-0.1234,0.7683,0.1157,226.15,122.6,238.03,14.36
1748,0.4215,-0.2402,0.8703,0.0852,272.32,150.9,222.79,15.19
1749,0.2286,-0.3383,0.9125,0.0263,312.93,167.23,223.35,14.18
1750,0.1498,-0.4499,0.8804,0.0092,330.39,171.02,235.3,15.26
1751,0.237,-0.5279,0.8126,0.0702,323.75,157.46,249.66,15.18
1752,0.279,-0.5514,0.7828,0.0733,318.3,153.13,255.35,15.42
1753,0.3049,-0.5767,0.7575,0.0266,308.92,154.25,260.49,17.6
1754,0.2926,-0.5716,0.7648,-0.0526,298.98,162.85,258.26,16.18
1755,0.2756,-0.5577,0.7726,-0.1266,290.9,172.2,254.07,18.04
1756,0.2832,-0.5863,0.743,-0.1548,285.91,172.66,259.01,17.69
1757,0.3518,-0.6193,0.6911,-0.1226,280.68,159.77,271.08,16.91
1758,0.3984,-0.6085,0.6768,-0.1136,274.69,153.24,274.53,16.44
1759,0.4005,-0.5683,0.7033,-0.1486,265.85,158.82,267.19,18.38
1760,0.3828,-0.5134,0.7431,-0.1942,259.6,170.61,253.69,17.86
1761,0.3411,-0.4549,0.7864,-0.2416,261.74,186.11,237.31,17.6
1762,0.2797,-0.4662,0.7961,-0.2659,272.23,193.04,235.43,17.65
1763,0.2323,-0.5044,0.7847,-0.2756,280.04,194.98,239.99,16.33
1764,0.1968,-0.5138,0.7805,-0.2967,284.51,199.27,240.06,16.41
1765,0.1678,-0.4901,0.7936,-0.3192,289.22,204.81,235.37,16.55
1766,0.1569,-0.46,0.8119,-0.3233,292.96,207.17,230.74,17.59
1767,0.197,-0.4457,0.8192,-0.3024,287.35,203.39,229.33,17.79
1768,0.2608,-0.4294,0.8126,-0.2954,274.7,200.37,227.68,17.79
1769,0.4616,-0.4178,0.7348,-0.2692,230.81,181.33,238.41,18.0
1770,0.8005,-0.3963,0.4357,-0.1105,256.52,60.36,344.21,17.35
1771,0.9518,-0.2499,-0.0657,0.1652,23.97,27.66,343.27,16.42
1772,0.7423,-0.0176,-0.5378,0.3992,108.7,316.23,280.16,15.79
1773,0.2659,0.2199,-0.8314,0.4355,29.03,240.33,218.1,17.12
1774,-0.3173,0.4125,-0.778,0.3518,256.75,207.41,222.41,19.0
1775,-0.7675,0.484,-0.3781,0.1836,261.41,67.88,352.58,21.4
1776,-0.8836,0.3981,0.239,0.0594,44.07,52.14,18.57,26.08
1777,-0.6759,0.1666,0.7155,-0.0584,161.3,119.28,100.91,27.3
1778,-0.6877,0.1036,0.6971,-0.1742,168.46,273.73,251.05,24.22
1779,-0.7478,0.0556,0.605,-0.2676,138.35,317.41,290.53,24.22
1780,-0.7521,0.0141,0.6006,-0.2711,131.28,312.42,288.6,22.22
1781,-0.787,0.0054,0.5557,-0.268,122.69,322.89,299.87,23.84
1782,-0.793,0.0056,0.5427,-0.2767,119.5,324.64,300.77,21.12
1783,-0.7945,-0.0159,0.5395,-0.2784,116.08,322.05,299.78,25.46
1784,-0.8088,-0.0384,0.5157,-0.28,108.73,322.97,302.3,21.94
1785,-0.8322,-0.0446,0.4742,-0.2841,99.61,327.84,307.06,22.04
1786,-0.8512,-0.0038,0.4218,-0.3122,91.4,337.27,310.03,23.89
1787,-0.8456,0.1007,0.3342,-0.4039,80.57,352.49,306.18,23.2
1788,-0.7828,0.3299,0.1926,-0.4912,77.46,24.81,304.63,22.66
1789,-0.5977,0.6344,0.0053,-0.4902,77.84,75.48,311.88,23.48
1790,-0.3093,0.8246,-0.1552,-0.4475,79.88,122.17,315.98,22.82
1791,-0.0876,0.8825,-0.2528,-0.3868,79.35,152.94,318.1,24.09
1792,-0.011,0.8655,-0.3564,-0.3517,73.89,160.27,308.59,24.26
1793,-0.0466,0.8143,-0.436,-0.3804,70.73,150.02,293.9,25.76
1794,-0.1748,0.7474,-0.4849,-0.4192,54.4,131.34,281.57,26.03
1795,-0.4094,0.5594,-0.4543,-0.5595,29.44,92.29,267.7,24.29
1796,-0.6116,0.337,-0.3869,-0.6022,352.27,61.67,268.58,24.12
1797,-0.7374,0.1853,-0.3172,-0.5668,330.13,40.91,279.31,27.3
1798,-0.793,0.0905,-0.2851,-0.5308,318.28,28.52,287.05,23.88
1799,-0.8102,0.0385,-0.2927,-0.5063,308.38,23.49,290.55,24.29
1800,-0.811,0.0249,-0.3273,-0.4842,299.09,24.49,291.56,23.51
1801,-0.8176,0.025,-0.3427,-0.462,295.01,25.08,293.64,23.31
1802,-0.8285,0.0281,-0.3417,-0.4427,294.45,24.54,296.44,23.79
1803,-0.8225,0.0492,-0.3745,-0.4252,289.91,29.21,295.92,21.72
1804,-0.8101,0.0867,-0.4156,-0.4043,285.78,36.69,294.25,25.29
1805,-0.7184,0.1964,-0.5699,-0.3472,273.92,68.04,278.61,22.16
1806,-0.3089,0.4205,-0.8388,-0.1556,314.42,145.6,240.39,20.7
1807,0.2342,0.5446,-0.7989,0.1008,30.67,205.57,252.06,22.84
1808,0.7124,0.494,-0.4164,0.2737,37.67,280.05,302.14,21.23
1809,0.9029,0.2996,0.2334,0.201,294.37,327.85,344.61,18.19
1810,0.6138,-0.0004,0.7889,-0.0283,208.83,190.21,172.13,17.88
1811,0.0471,-0.1348,0.9787,-0.1473,344.83,196.15,194.61,19.27
1812,-0.506,-0.053,0.8344,-0.212,110.56,225.67,212.14,18.28
1813,-0.6836,0.057,0.7018,-0.1922,157.85,272.54,252.14,16.39
1814,-0.7323,0.1285,0.6381,-0.2001,160.81,336.23,309.26,15.77
1815,-0.8484,0.1837,0.4509,-0.208,114.58,13.27,339.72,16.31
1816,-0.9268,0.2106,0.2391,-0.1988,63.6,20.33,341.64,16.09
1817,-0.9438,0.2171,0.136,-0.209,40.66,22.11,339.04,17.04
1818,-0.9464,0.2246,0.0623,-0.2236,25.23,24.02,336.11,16.3
1819,-0.9407,0.2494,-0.0424,-0.2258,3.76,29.26,333.5,15.09
1820,-0.9269,0.2774,-0.1118,-0.2268,350.65,34.53,331.05,14.99
1821,-0.914,0.305,-0.1445,-0.2251,345.43,38.88,329.76,16.07
1822,-0.8967,0.3414,-0.1447,-0.2418,349.16,43.26,327.67,16.01
1823,-0.8775,0.3776,-0.1376,-0.2616,354.97,47.34,325.7,15.16
1824,-0.8533,0.4163,-0.1454,-0.2783,358.12,52.32,323.41,15.57
1825,-0.8169,0.4594,-0.189,-0.2932,355.48,59.54,319.22,17.14
1826,-0.776,0.4909,-0.2306,-0.3218,355.19,65.67,313.4,14.63
1827,-0.7364,0.5158,-0.2703,-0.3444,355.09,71.2,308.11,14.45
1828,-0.692,0.5394,-0.3153,-0.3616,354.69,77.32,302.7,13.52
1829,-0.6388,0.5708,-0.3753,-0.354,351.34,86.16,297.97,14.36
1830,-0.6043,0.5938,-0.4044,-0.3444,350.85,91.86,295.91,14.61
1831,-0.5724,0.614,-0.4285,-0.3344,350.84,96.98,294.24,14.55
1832,-0.5395,0.6294,-0.4507,-0.3311,352.03,101.48,292.05,15.13
1833,-0.5196,0.6287,-0.4684,-0.3397,353.17,103.28,289.34,13.53
1834,-0.5095,0.6179,-0.4867,-0.3489,352.57,103.76,286.46,13.89
1835,-0.4983,0.5975,-0.5115,-0.3647,351.52,103.77,282.19,13.4
1836,-0.4641,0.5708,-0.5705,-0.3652,347.07,107.72,274.76,13.22
1837,-0.415,0.5542,-0.6448,-0.324,339.72,116.92,267.59,13.82
1838,-0.3382,0.5606,-0.7065,-0.2687,339.66,129.56,261.66,12.94
1839,-0.2948,0.5501,-0.7409,-0.248,341.13,135.47,257.05,14.17
1840,-0.2046,0.5303,-0.7973,-0.2032,347.28,147.02,249.14,12.56
1841,-0.0893,0.5263,-0.8358,-0.1282,358.36,162.04,244.53,12.86
1842,-0.0109,0.5564,-0.8282,-0.0662,6.36,172.99,247.59,13.02
1843,-0.0123,0.6229,-0.7804,-0.0541,5.53,174.26,257.05,11.86
1844,0.032,0.7125,-0.7007,0.0172,2.32,184.0,271.0,13.46
1845,0.1168,0.7942,-0.5917,0.0733,2.51,195.81,286.8,13.79
1846,0.217,0.8695,-0.4139,0.1602,348.64,210.83,307.53,14.98
1847,0.3011,0.9111,-0.1773,0.2188,326.05,220.9,331.61,15.68
1848,0.3336,0.919,0.0617,0.2011,311.49,220.18,358.7,14.26
1849,0.3342,0.8669,0.2894,0.2302,287.33,213.63,25.6,15.01
1850,0.3003,0.7867,0.4625,0.2777,268.77,197.96,53.3,18.28
1851,0.2497,0.7035,0.5931,0.3017,267.78,179.46,80.5,17.27
1852,0.2383,0.5991,0.7103,0.2825,274.78,170.94,103.25,18.75
1853,0.2626,0.5044,0.7836,0.2502,276.79,170.21,118.19,18.91
1854,0.3643,0.4436,0.7945,0.1982,262.01,180.72,121.32,20.38
1855,0.5138,0.3822,0.7517,0.1577,233.51,200.23,113.55,18.38
1856,0.6563,0.3058,0.6741,0.1462,206.09,244.86,77.61,19.94
1857,0.7082,0.1973,0.6472,0.2016,189.9,347.67,339.53,19.35
1858,0.7775,0.0561,0.5694,0.2611,227.68,31.33,302.18,18.77
1859,0.8765,-0.0442,0.4055,0.2555,273.02,23.11,318.17,18.82
1860,0.8987,-0.0987,0.3216,0.2814,296.99,24.85,318.12,19.94
1861,0.9369,-0.1144,0.1804,0.2768,328.1,19.07,324.38,18.11
1862,0.927,-0.1204,0.149,0.3225,337.1,19.02,319.71,18.71
1863,0.8984,-0.1243,0.1984,0.3716,329.37,22.61,311.98,16.75
1864,0.8806,-0.1076,0.1948,0.4184,330.68,21.37,306.39,18.65
1865,0.8802,-0.1282,0.1465,0.4328,343.11,20.88,306.07,18.27
1866,0.8633,-0.1758,0.1473,0.4496,348.96,25.97,303.7,17.42
1867,0.8342,-0.2228,0.2082,0.4595,343.61,34.67,299.74,17.84
1868,0.8184,-0.2554,0.2269,0.462,344.43,39.31,298.32,17.48
1869,0.7677,-0.2348,0.3159,0.5057,331.32,44.57,287.36,18.49
1870,0.7175,-0.2665,0.4355,0.4739,316.28,58.95,280.65,18.76
1871,0.6422,-0.2968,0.5722,0.4149,301.5,78.82,270.07,15.85
1872,0.6012,-0.3031,0.6427,0.3656,293.11,90.67,263.58,17.57
1873,0.5979,-0.2705,0.6665,0.3537,285.45,92.5,259.97,19.31
1874,0.6094,-0.24,0.6642,0.3604,280.94,89.82,259.39,18.65
1875,0.6219,-0.2087,0.6513,0.3815,278.79,85.12,259.42,18.76
1876,0.5811,-0.2001,0.6841,0.3929,280.75,91.19,251.49,16.93
1877,0.5602,-0.1877,0.694,0.4115,282.91,92.46,247.3,17.4
1878,0.5477,-0.1617,0.6979,0.4322,282.67,91.95,243.56,19.19
1879,0.5254,-0.1417,0.7102,0.4466,283.4,93.58,238.69,18.91
1880,0.4991,-0.1101,0.7307,0.4526,281.93,96.81,232.07,16.68
1881,0.4827,-0.0869,0.7538,0.4374,278.66,101.52,226.83,19.25
1882,0.4715,-0.0729,0.7718,0.4202,276.38,105.74,223.06,16.53
1883,0.4658,-0.0709,0.7829,0.4063,275.61,108.56,221.37,17.86
1884,0.4929,-0.0662,0.7699,0.3999,270.17,105.93,224.47,17.55
1885,0.5147,-0.0436,0.7535,0.4067,264.5,101.96,226.09,18.8
1886,0.5071,-0.0244,0.7551,0.4148,263.58,102.27,223.36,16.8
1887,0.4588,-0.0281,0.7881,0.4094,271.12,109.97,216.03,18.27
1888,0.4389,-0.036,0.8085,0.3903,274.06,115.07,213.21,18.12
1889,0.4376,-0.0419,0.8167,0.3738,273.78,117.54,212.81,16.87
1890,0.425,-0.0413,0.8302,0.3585,274.94,121.21,210.43,16.86
1891,0.4113,-0.05,0.8429,0.3434,277.55,124.49,209.19,18.12
1892,0.3849,-0.068,0.8602,0.3276,283.71,128.45,207.99,18.12
1893,0.3379,-0.0839,0.885,0.3091,293.8,133.88,205.26,17.09
1894,0.2948,-0.1033,0.9021,0.2979,303.9,137.31,204.22,18.01
1895,0.2798,-0.1144,0.9087,0.288,307.47,139.07,204.31,17.65
1896,0.2484,-0.1385,0.9179,0.2769,315.43,141.41,205.05,17.0
1897,0.2771,-0.1672,0.9061,0.2726,311.48,139.94,209.87,18.01
1898,0.2952,-0.1828,0.8995,0.2651,308.52,139.51,212.6,19.08
1899,0.3786,-0.1602,0.8756,0.2534,288.84,135.98,215.52,16.45
1900,0.46,-0.1631,0.8373,0.2465,272.75,128.96,223.67,17.9
1901,0.4892,-0.2132,0.8072,0.2521,273.94,122.63,233.93,17.24
1902,0.4912,-0.2469,0.7943,0.2586,278.53,120.43,238.53,17.59
1903,0.4596,-0.258,0.808,0.2633,285.28,123.52,236.0,18.06
1904,0.5118,-0.305,0.7596,0.261,283.62,115.63,248.34,19.18
1905,0.5304,-0.3285,0.738,0.257,284.22,112.75,253.7,17.1
1906,0.5675,-0.3562,0.6917,0.2693,287.23,105.18,262.72,18.01
1907,0.6105,-0.3699,0.6376,0.2898,291.33,96.02,271.32,17.31
1908,0.6551,-0.398,0.5666,0.3022,299.76,87.28,281.68,17.57
1909,0.7442,-0.3935,0.4206,0.3383,317.82,68.86,296.57,19.38
1910,0.8363,-0.3289,0.23,0.3734,344.0,46.81,308.41,17.84
1911,0.8833,-0.2508,0.0203,0.3956,18.72,27.73,314.07,17.03
1912,0.882,-0.1759,-0.1678,0.4037,51.95,11.21,313.4,17.95
1913,0.8422,-0.1053,-0.3024,0.4338,73.85,353.89,303.45,18.49
1914,0.8104,-0.0471,-0.4072,0.4186,88.75,338.27,296.42,17.91
1915,0.7403,0.0251,-0.5438,0.3945,103.51,311.15,279.05,17.9
1916,0.5941,0.1425,-0.7111,0.3479,96.45,265.52,247.63,18.6
1917,0.5255,0.1852,-0.7603,0.3339,84.97,252.25,239.07,19.17
1918,0.4847,0.2348,-0.7831,0.311,75.62,244.78,237.9,18.12
1919,0.4344,0.2671,-0.8008,0.3141,63.73,239.95,235.59,19.27
1920,0.3522,0.2797,-0.8304,0.3287,47.29,234.21,229.47,18.38
1921,0.3061,0.2807,-0.8433,0.3411,37.9,232.18,226.17,18.59
1922,0.2886,0.3201,-0.8378,0.3352,31.2,230.8,229.26,20.27
1923,0.2109,0.3071,-0.8617,0.3444,17.48,227.02,223.04,18.38
1924,0.1379,0.2751,-0.8796,0.3627,4.93,225.61,215.77,16.45
1925,0.0527,0.2648,-0.8899,0.3675,348.41,223.28,210.84,18.54
1926,-0.0274,0.2969,-0.8874,0.3516,330.17,218.98,211.69,16.8
1927,-0.098,0.3528,-0.8748,0.3172,313.43,211.93,217.17,17.65
1928,-0.1203,0.3935,-0.8555,0.3144,306.1,209.82,222.1,17.33
1929,-0.1104,0.3551,-0.8642,0.339,308.86,214.23,216.68,19.38
1930,-0.1308,0.3105,-0.8654,0.3708,305.65,219.07,209.67,18.43
1931,-0.1416,0.3304,-0.8395,0.4075,299.07,223.25,210.64,17.03
1932,-0.1304,0.3773,-0.8187,0.4127,296.68,222.72,216.83,19.21
1933,-0.1184,0.3591,-0.8343,0.4012,301.87,221.96,215.22,17.31
1934,-0.1215,0.3583,-0.8485,0.3701,303.76,217.83,215.98,16.56
1935,-0.1062,0.3479,-0.8636,0.3492,309.53,215.81,215.61,17.86
1936,-0.0574,0.3786,-0.8533,0.3539,317.08,217.04,220.58,18.49
1937,-0.092,0.4377,-0.8263,0.3423,306.29,212.94,227.75,20.92
1938,-0.1229,0.4149,-0.8316,0.3481,300.9,213.26,224.02,18.75
1939,-0.1835,0.4079,-0.8253,0.3448,288.5,211.12,222.34,18.8
1940,-0.3305,0.5184,-0.7437,0.2626,260.39,184.26,247.78,18.59
1941,-0.4815,0.5693,-0.6612,0.0831,266.01,140.01,279.44,18.12
1942,-0.6054,0.6206,-0.4914,-0.083,301.06,106.9,305.32,19.19
1943,-0.6729,0.5955,-0.4113,-0.1528,316.37,92.94,311.48,17.91
1944,-0.7387,0.4979,-0.3769,-0.2538,324.59,76.64,308.05,18.86
1945,-0.8129,0.4116,-0.2742,-0.3075,337.77,58.63,312.31,19.31
1946,-0.8489,0.3546,-0.2328,-0.3155,340.25,49.47,314.67,18.74
1947,-0.8412,0.332,-0.3061,-0.2973,322.96,51.36,312.1,19.69
1948,-0.8212,0.314,-0.3924,-0.2701,303.31,55.79,308.35,19.25
1949,-0.7824,0.3065,-0.5022,-0.2043,277.32,65.8,303.3,18.8
1950,-0.7705,0.3017,-0.5375,-0.1624,266.18,69.43,302.73,18.12
1951,-0.746,0.3093,-0.5767,-0.1231,256.68,76.63,299.4,17.66
1952,-0.7492,0.2769,-0.5915,-0.11,248.73,74.93,299.26,19.65
1953,-0.7387,0.2527,-0.6193,-0.0829,238.35,77.54,296.71,19.01
1954,-0.7101,0.2448,-0.6582,-0.0513,229.09,88.12,287.99,17.76
1955,-0.7128,0.2348,-0.6585,-0.0561,228.31,86.84,288.01,19.57
1956,-0.7245,0.2351,-0.6455,-0.0554,229.17,82.25,292.69,19.38
1957,-0.6966,0.2498,-0.6713,-0.0411,227.67,93.7,283.65,19.19
1958,-0.6962,0.257,-0.6691,-0.0404,228.77,93.8,284.23,18.18
1959,-0.7347,0.2667,-0.6215,-0.0523,235.4,79.45,298.52,18.7
1960,-0.7768,0.2772,-0.5619,-0.0627,246.08,66.8,311.4,18.86
1961,-0.7743,0.2834,-0.5601,-0.0808,249.53,68.17,309.1,18.97
1962,-0.7514,0.2871,-0.5845,-0.1061,250.31,74.72,300.71,20.08
1963,-0.7278,0.2735,-0.615,-0.1312,249.13,80.48,291.62,18.01
1964,-0.7248,0.2573,-0.6208,-0.1517,249.43,80.21,288.76,18.43
1965,-0.7231,0.2575,-0.62,-0.1626,251.24,80.26,287.82,18.86
1966,-0.7086,0.2521,-0.6322,-0.1864,253.38,82.92,282.68,18.38
1967,-0.7201,0.2417,-0.6132,-0.217,257.81,77.94,284.19,16.08
1968,-0.7231,0.2326,-0.5994,-0.2526,262.95,74.83,283.44,18.23
1969,-0.7433,0.2095,-0.5609,-0.2985,269.74,66.35,285.85,18.38
1970,-0.7734,0.1757,-0.5019,-0.3451,278.14,54.9,289.97,17.62
1971,-0.7854,0.1471,-0.4599,-0.3873,285.04,47.74,290.43,17.96
1972,-0.772,0.1335,-0.451,-0.4276,288.8,46.7,286.25,17.63
1973,-0.7484,0.1237,-0.4498,-0.4715,292.36,47.17,280.46,15.99
1974,-0.7328,0.0971,-0.4256,-0.522,297.02,43.46,276.25,17.27
1975,-0.7231,0.0412,-0.3759,-0.578,300.53,34.69,273.25,16.76
1976,-0.7026,-0.0405,-0.3127,-0.6378,301.17,23.12,269.39,15.86
1977,-0.6598,-0.1421,-0.2228,-0.7034,300.79,8.33,264.13,16.31
1978,-0.5959,-0.2695,-0.0809,-0.7521,299.76,346.66,260.39,15.88
1979,-0.5048,-0.3639,0.0558,-0.7808,298.41,328.05,254.78,16.5
1980,-0.4142,-0.383,0.1564,-0.8108,301.13,319.05,245.33,13.96
1981,-0.3327,-0.3869,0.252,-0.8223,304.12,310.5,237.14,14.0
1982,-0.2445,-0.4224,0.3473,-0.8008,299.12,297.79,232.6,13.6
1983,-0.1751,-0.4356,0.4105,-0.7817,295.01,289.65,228.47,12.99
1984,-0.1268,-0.3998,0.4565,-0.7847,298.45,287.87,221.03,12.63
1985,-0.0485,-0.4258,0.5032,-0.7504,287.65,279.34,218.38,12.68
1986,0.0754,-0.5072,0.5384,-0.6687,261.15,261.66,223.21,13.93
1987,0.2599,-0.6203,0.5425,-0.5034,229.95,211.99,256.95,12.63
1988,0.4945,-0.7174,0.4441,-0.2084,264.82,128.95,320.27,12.9
1989,0.6701,-0.6812,0.2365,0.1761,351.16,92.29,325.95,11.45
1990,0.7111,-0.4576,-0.0228,0.5333,62.74,47.19,300.24,10.85
1991,0.59,-0.1117,-0.2598,0.7562,56.78,342.73,251.53,11.9
1992,0.3281,0.3092,-0.4157,0.7899,335.09,298.31,232.57,9.64
1993,-0.0093,0.6095,-0.4299,0.6661,249.85,258.67,243.34,10.62
1994,-0.3055,0.7494,-0.3547,0.4683,226.56,161.47,321.61,8.34
1995,-0.5371,0.771,-0.2431,0.2407,281.56,113.37,351.36,8.51
1996,-0.6827,0.7125,-0.1499,0.0608,326.13,93.62,352.16,7.03
1997,-0.7664,0.6323,-0.1088,-0.03,345.18,79.74,349.33,7.74
1998,-0.8172,0.5635,-0.0685,-0.1002,0.11,69.17,346.06,5.97
1999,-0.845,0.5098,-0.0114,-0.1609,16.64,60.98,343.35,7.13
2000,-0.8609,0.4758,0.015,-0.1796,22.69,56.11,342.49,8.04
2001,-0.8736,0.4583,-0.0115,-0.1633,14.9,54.22,342.64,5.89
2002,-0.8806,0.4447,-0.0125,-0.1633,14.15,52.49,342.48,7.19
2003,-0.8847,0.4353,0.005,-0.1667,17.71,51.07,342.9,5.89
2004,-0.891,0.4269,-0.0016,-0.1547,14.84,50.14,343.78,5.84
2005,-0.896,0.4185,0.0088,-0.1479,16.04,49.01,344.91,8.24
2006,-0.8999,0.4146,0.0152,-0.1346,15.97,48.54,346.59,7.55
2007,-0.9043,0.4124,-0.0071,-0.11,8.93,48.56,348.15,6.51
2008,-0.9095,0.4043,-0.0263,-0.0926,3.11,47.78,349.06,6.14
2009,-0.9161,0.3898,-0.0237,-0.0909,3.14,45.95,349.33,7.52
2010,-0.9236,0.3717,-0.0212,-0.0915,3.3,43.69,349.34,5.08
2011,-0.9303,0.3543,-0.0169,-0.0934,3.99,41.51,349.29,4.9
2012,-0.9344,0.3429,-0.0145,-0.0953,4.39,40.09,349.15,6.79
2013,-0.937,0.3362,-0.0231,-0.0917,2.11,39.37,349.19,7.29
