time,acc_X,acc_Y,acc_Z,gyro_X,gyro_Y,gyro_Z,heading
0.9909,0.1101,0.056,0.0534,345.89,347.65,354.6,2.97
0.9893,0.0998,0.0698,0.0806,342.26,349.14,351.53,2.97
0.9906,0.069,0.0558,0.1042,345.64,352.76,348.45,0.89
0.9809,0.0591,0.1192,0.142,330.97,355.14,344.15,0.89
0.974,0.0421,0.1358,0.1766,327.55,357.96,339.73,0.89
0.9653,0.0528,0.1719,0.1893,318.79,357.75,338.21,2.25
0.963,0.0255,0.1846,0.1946,317.12,1.4,336.88,0.59
0.962,0.0499,0.1882,0.1916,315.19,358.52,337.76,1.05
0.958,0.0691,0.1966,0.1968,312.35,356.55,337.52,1.35
0.947,0.0921,0.2238,0.2111,304.85,354.82,336.15,359.71
0.9405,0.0927,0.2283,0.234,303.56,355.6,333.17,0.15
0.9344,0.1142,0.2228,0.2534,303.38,353.44,331.31,0.15
0.9304,0.1393,0.2095,0.2664,304.69,350.4,330.41,358.22
0.9247,0.1616,0.2008,0.28,304.98,347.86,329.29,358.7
0.9246,0.1718,0.166,0.2969,311.71,346.11,327.38,358.65
0.9429,0.1694,-0.0651,0.2794,3.23,339.15,326.69,358.96
0.916,0.2237,-0.2063,0.2612,30.27,327.57,323.74,358.99
0.8978,0.282,-0.1706,0.2922,16.26,322.26,321.15,358.29
0.8872,0.3179,-0.1047,0.3175,358.15,320.9,320.94,359.43
0.8592,0.3648,-0.0757,0.3506,345.56,316.73,318.47,359.57
0.8261,0.4106,-0.0594,0.3814,335.16,312.19,315.96,1.27
0.7644,0.4945,-0.1906,0.3671,351.79,296.07,311.26,0.29
0.7445,0.4999,-0.2391,0.3724,358.14,292.7,307.48,359.72
0.7015,0.5494,-0.2947,0.3452,3.93,282.87,306.04,359.01
0.6202,0.6297,-0.317,0.3441,355.41,270.34,304.24,357.72
0.5224,0.7113,-0.3557,0.3077,352.42,254.61,303.98,359.72
0.5398,0.6622,-0.459,0.2439,19.87,252.37,297.82,0.56
0.4587,0.7002,-0.502,0.2177,17.91,240.63,293.96,358.32
0.3538,0.7501,-0.5201,0.204,7.1,228.11,292.12,0.28
0.3108,0.7773,-0.4641,0.2894,341.42,229.63,294.02,0.0
0.2345,0.8065,-0.3883,0.3792,309.12,228.16,297.06,1.71
-0.0014,0.831,-0.2763,0.4827,253.14,206.35,309.78,1.13
-0.177,0.7927,-0.2111,0.5438,220.94,171.61,336.0,2.52
-0.0907,0.8027,-0.3056,0.5039,240.34,198.85,307.4,3.05
-0.1037,0.7936,-0.3287,0.5014,240.47,199.14,303.93,1.13
-0.1813,0.8061,-0.2731,0.4927,233.41,177.06,324.38,0.57
-0.2489,0.7834,-0.149,0.5497,221.42,140.24,6.52,2.39
-0.3446,0.6751,0.0398,0.6511,243.21,80.64,73.48,3.27
-0.4942,0.4536,0.2339,0.7038,311.94,58.36,96.28,4.85
-0.6376,0.1719,0.4308,0.6151,39.5,52.74,97.8,7.34
-0.6958,-0.121,0.5735,0.4151,127.93,44.51,90.3,9.41
-0.6523,-0.3542,0.64,0.1986,154.66,251.34,297.66,9.71
-0.6531,-0.3835,0.6285,0.1772,146.21,253.18,300.44,13.06
-0.6027,-0.448,0.6498,0.1178,125.42,237.57,286.19,11.6
-0.5888,-0.4607,0.6557,0.1059,120.84,234.85,283.8,15.59
-0.6658,-0.3529,0.6305,0.1861,152.29,259.34,304.5,14.42
-0.6273,-0.3618,0.6789,0.1213,139.93,237.6,278.19,13.01
-0.6617,-0.3166,0.6656,0.1374,150.86,249.85,287.62,12.07
-0.7171,-0.2193,0.6283,0.2071,165.46,334.61,9.77,13.65
-0.7107,-0.239,0.65,0.1238,158.87,282.87,312.73,11.45
-0.7499,-0.2247,0.6167,0.0826,148.34,300.46,325.8,10.96
-0.7817,-0.1643,0.5915,0.11,147.83,332.76,355.36,12.23
-0.8007,-0.0934,0.5741,0.1433,142.23,2.65,22.19,11.28
-0.7961,0.0457,0.5655,0.2104,123.58,41.09,54.89,10.73
-0.783,0.1219,0.5593,0.2435,109.47,53.36,63.71,9.22
-0.7934,0.1684,0.5162,0.275,93.18,53.33,62.64,9.83
-0.8057,0.1877,0.481,0.2903,83.52,51.25,60.37,8.82
-0.7715,0.262,0.4804,0.3247,69.64,60.74,66.47,8.6
-0.7114,0.4334,0.4123,0.3688,30.96,72.84,66.26,9.14
-0.6743,0.5772,0.3267,0.3247,7.55,83.08,54.76,7.58
-0.7481,0.5055,0.4101,0.1295,57.71,79.96,43.99,5.76
-0.7803,0.4724,0.4095,-0.0173,81.89,73.2,28.45,7.2
-0.7793,0.5715,0.2521,-0.0509,53.62,75.75,13.53,7.39
-0.7294,0.612,0.272,-0.1397,69.19,82.81,9.02,6.03
-0.6543,0.6528,0.2915,-0.2465,89.37,91.8,4.68,6.15
-0.6341,0.6326,0.2561,-0.3636,103.4,83.66,347.23,5.47
-0.5975,0.6211,0.3019,-0.4074,120.21,84.69,347.03,5.08
-0.4855,0.5979,0.4114,-0.4874,158.42,106.57,5.71,6.4
-0.3793,0.6041,0.4249,-0.5573,169.4,189.59,78.99,3.31
-0.3188,0.5374,0.3464,-0.6997,153.26,322.08,198.62,2.67
-0.3197,0.3762,0.2507,-0.8327,103.78,343.33,213.85,3.9
-0.3011,0.3134,0.2079,-0.8763,84.82,346.24,212.56,1.26
-0.248,0.2827,0.1131,-0.9197,70.34,355.23,208.67,3.4
-0.2524,0.2153,0.1155,-0.9363,54.95,353.04,208.47,3.31
-0.2006,0.2114,0.149,-0.9449,54.68,347.2,200.84,3.9
-0.1204,0.2731,0.0944,-0.9498,65.56,352.24,192.17,3.03
-0.1224,0.2825,0.0229,-0.9511,65.78,1.74,195.18,1.98
-0.1319,0.2365,0.0891,-0.9585,56.96,352.92,193.87,1.21
-0.1404,0.3217,0.0222,-0.9361,74.98,3.52,198.25,1.64
-0.1094,0.4154,0.014,-0.9029,97.74,5.72,196.42,2.56
-0.0785,0.4578,0.0224,-0.8853,108.99,3.17,191.77,1.64
-0.093,0.4949,0.0065,-0.8639,117.81,9.01,197.38,1.49
-0.0905,0.5193,0.0008,-0.8498,123.95,11.37,199.0,1.77
-0.0945,0.5787,0.0037,-0.8101,139.51,17.39,205.48,1.09
-0.0934,0.6405,-0.0002,-0.7623,155.06,33.74,221.33,0.98
-0.0311,0.694,0.0316,-0.7186,176.01,356.32,181.41,0.97
0.0359,0.7386,0.0693,-0.6697,159.59,235.43,58.14,1.12
0.0414,0.7575,0.0624,-0.6485,155.58,222.74,44.45,0.56
0.0398,0.7629,0.0683,-0.6416,153.62,220.53,42.86,0.0
0.045,0.7941,0.0522,-0.6038,145.23,206.76,27.35,0.85
0.0623,0.8015,0.0391,-0.5935,142.34,206.95,25.04,359.29
0.076,0.8383,0.0934,-0.5318,122.65,208.2,29.66,359.03
0.1452,0.8662,0.2211,-0.4239,84.17,216.26,42.99,0.14
0.2508,0.8796,0.3091,-0.2606,35.33,219.2,45.05,0.14
0.4191,0.809,0.409,-0.0509,329.8,228.19,46.85,358.29
0.3565,0.7417,0.5528,0.1311,287.88,208.36,63.99,356.12
0.2815,0.6282,0.6789,0.2554,270.64,180.55,94.21,356.34
0.2768,0.452,0.7457,0.4037,257.88,145.95,134.2,357.3
0.2837,0.3709,0.7776,0.4209,262.2,137.49,149.06,357.72
0.2452,0.376,0.8291,0.3334,277.82,150.73,142.39,357.76
0.2669,0.3571,0.8192,0.3609,271.94,146.14,146.93,359.4
0.3772,0.4336,0.7681,0.2822,248.96,169.16,126.82,359.22
0.4275,0.4843,0.7298,0.2239,245.54,189.28,107.79,356.4
0.4222,0.511,0.7145,0.2237,247.39,191.62,102.62,357.92
0.3497,0.5126,0.763,0.1813,267.98,186.76,109.34,357.24
0.3206,0.4115,0.8354,0.173,274.61,178.03,128.33,357.34
0.3659,0.2728,0.8766,0.1525,267.12,174.35,147.86,359.25
0.269,0.2025,0.9416,0.0079,298.7,186.28,154.0,0.0
0.2113,0.0581,0.9744,-0.0495,312.09,187.61,171.56,0.0
0.1087,-0.1712,0.9649,-0.1671,329.04,197.22,197.77,1.85
0.0619,-0.2067,0.9676,-0.1314,339.96,193.43,202.93,4.25
-0.1039,-0.2789,0.9541,-0.0326,20.75,187.01,213.22,3.61
0.0413,-0.4906,0.8541,0.1678,10.8,160.82,238.84,3.61
0.4225,-0.701,0.563,0.1151,323.37,130.5,290.96,3.75
0.5006,-0.8454,0.0953,0.1598,20.13,117.05,340.96,7.01
0.3527,-0.858,-0.3088,0.2097,70.57,144.34,27.91,8.93
0.3114,-0.8056,-0.504,0.0,36.59,148.1,58.79,10.69
0.1536,-0.7462,-0.6391,-0.1056,4.45,158.63,80.74,10.17
0.0807,-0.622,-0.7788,0.0054,15.22,174.68,102.41,10.22
0.0548,-0.4893,-0.8622,-0.1196,357.42,164.93,121.02,11.25
0.147,-0.4081,-0.7426,-0.5102,337.14,116.43,129.51,11.91
0.0583,-0.3912,-0.7221,-0.5675,317.82,111.97,137.43,10.75
0.113,-0.27,-0.8122,-0.5046,349.8,117.85,146.3,10.84
0.1364,-0.1504,-0.8876,-0.4135,13.53,128.7,157.51,10.23
0.1457,-0.1737,-0.9312,-0.2855,19.82,143.76,155.61,11.84
0.1897,-0.1994,-0.9475,0.1624,50.22,194.85,159.55,12.78
0.1088,-0.1607,-0.6821,0.705,44.05,271.1,175.93,16.85
-0.097,0.1923,-0.3164,0.9238,310.74,322.98,176.37,17.42
-0.2988,0.6251,0.1917,0.695,262.07,77.24,93.45,18.62
-0.3798,0.5865,0.7092,0.0936,50.8,140.19,91.49,18.16
-0.2001,0.2856,0.6966,-0.6269,79.11,260.03,169.01,18.43
0.041,-0.206,0.207,-0.9554,311.51,335.47,180.43,17.27
0.0241,-0.6719,-0.3983,-0.6238,249.99,112.6,99.6,18.86
0.3888,-0.7247,-0.56,-0.1002,33.75,135.08,68.37,12.65
0.6528,-0.537,-0.2652,0.4638,115.2,58.17,323.23,5.76
0.7867,-0.1691,-0.3331,0.4913,87.3,355.14,294.09,356.81
0.7443,0.2559,-0.4155,0.456,45.29,304.58,285.0,353.14
0.656,0.0166,-0.5482,0.5184,89.2,304.02,258.77,350.84
0.544,0.1879,-0.3503,0.7389,11.87,313.44,250.16,352.83
0.4165,0.4178,-0.2087,0.78,302.89,309.93,249.76,348.17
0.2674,0.4901,-0.1069,0.8227,262.94,318.59,235.35,347.32
0.0828,0.5175,0.0128,0.8516,235.87,352.16,195.83,344.49
-0.0827,0.546,0.1839,0.8132,241.92,49.2,139.33,343.27
-0.3449,0.5186,0.3722,0.6881,305.61,78.0,104.59,340.4
-0.5995,0.3775,0.6335,0.3109,63.3,95.91,89.73,337.08
-0.5954,0.4236,0.6693,0.1347,86.13,110.41,84.68,332.91
-0.6012,0.5541,0.5381,0.2048,49.67,102.29,68.19,331.29
-0.7008,0.6091,0.3713,0.0053,61.86,91.19,32.41,333.36
-0.7681,0.4308,0.4394,-0.1771,111.71,64.39,10.94,329.01
-0.7623,0.1531,0.5855,-0.2294,148.69,352.51,320.82,327.84
-0.6066,-0.1325,0.7455,-0.2423,114.33,254.31,245.02,327.31
-0.0229,-0.7635,0.6002,-0.2367,320.99,199.8,280.23,323.91
0.583,-0.7005,0.3499,-0.2165,269.31,108.79,340.22,322.14
0.6835,-0.5905,0.3577,-0.2371,259.48,85.81,351.16,316.6
0.7189,-0.5982,0.3518,0.0404,305.55,87.63,327.41,315.12
0.6668,-0.5627,0.1649,0.46,34.64,70.9,303.18,313.84
0.2976,-0.6011,-0.1151,0.7326,143.37,37.03,251.43,313.81
-0.1879,-0.3628,-0.365,0.8366,56.04,302.2,138.99,312.39
-0.6703,0.0635,-0.5338,0.5116,257.38,312.48,98.58,312.3
-0.8907,0.2676,-0.3245,0.1725,275.81,29.44,10.37,308.74
-0.907,0.361,-0.1587,-0.1475,339.09,45.52,337.13,305.28
-0.7865,0.3999,0.0057,-0.4706,45.33,42.52,307.13,309.77
-0.6117,0.3666,0.1272,-0.6894,82.76,21.35,271.31,302.74
-0.4505,0.2704,0.1449,-0.8384,71.46,0.04,236.51,304.93
-0.183,0.2277,0.1865,-0.938,59.4,342.13,197.3,304.03
0.2726,0.0905,0.3261,-0.9007,358.3,320.45,146.63,299.58
0.5901,0.0163,0.3574,-0.7237,313.06,324.2,109.29,304.43
0.7864,-0.0104,0.3793,-0.4874,285.3,333.61,72.64,308.16
0.9199,-0.0492,0.3338,-0.1999,281.34,356.82,25.66,306.71
0.9449,-0.0146,0.2023,0.257,315.98,8.16,327.97,311.99
0.7537,0.0008,-0.0624,0.6543,10.68,355.23,277.85,346.5
0.2509,-0.115,-0.4822,0.8314,51.34,304.36,199.87,4.76
-0.0745,-0.071,-0.6,0.7934,2.66,285.67,168.26,39.09
-0.1839,-0.0833,-0.6354,0.7453,347.44,280.36,157.52,36.29
-0.2775,-0.0823,-0.6305,0.7202,333.23,281.35,148.83,43.9
-0.4956,0.0176,-0.654,0.5713,276.11,281.16,133.09,47.37
-0.6552,0.1723,-0.5811,0.4509,227.06,311.64,101.86,49.61
-0.6931,0.4412,-0.4009,0.4053,228.07,44.73,30.73,51.43
-0.6034,0.5516,-0.326,0.4747,226.97,63.33,32.34,46.47
-0.5181,0.6419,-0.3291,0.4597,222.8,96.39,8.48,52.43
-0.5376,0.6001,-0.144,0.5746,244.77,63.57,56.18,49.97
-0.6381,0.2793,0.2915,0.6556,0.67,47.62,91.7,45.0
-0.6873,-0.1494,0.4723,0.5312,107.79,30.21,91.03,37.87
-0.8369,-0.2261,0.3588,0.346,98.41,348.52,39.65,49.03
-0.9423,0.2573,0.1981,0.081,38.75,33.23,15.66,52.91
-0.9223,0.3287,-0.1434,0.1439,317.9,37.27,10.57,48.67
-0.9593,0.274,-0.0548,-0.0399,350.44,32.14,353.86,47.58
-0.9596,-0.2321,-0.0822,-0.136,334.46,334.29,346.79,49.54
-0.94,-0.1682,-0.2913,-0.0572,290.95,339.91,359.34,56.82
-0.8764,-0.1221,-0.4649,-0.0293,249.43,340.85,6.26,55.22
-0.8354,-0.0853,-0.5399,-0.0577,228.47,348.72,359.4,54.32
-0.7246,0.2714,-0.5289,-0.3486,289.48,68.95,284.0,54.07
-0.5288,0.4921,-0.4988,-0.479,353.58,88.96,272.5,52.8
-0.4498,0.4993,-0.2368,-0.7016,58.35,63.52,263.64,52.93
-0.4518,0.5508,0.0007,-0.7018,101.37,51.63,271.36,56.44
-0.5501,0.4946,0.1693,-0.6512,112.29,35.52,279.77,59.3
-0.6164,0.5513,0.3645,-0.428,134.25,71.02,341.12,61.62
-0.838,0.2926,0.3648,-0.2811,101.78,26.89,335.9,56.89
-0.9004,0.0209,0.3959,-0.1792,92.18,351.35,333.81,64.08
-0.8553,-0.1594,0.4218,-0.2551,79.61,320.57,312.0,58.11
-0.682,-0.6447,0.2552,-0.2325,5.54,272.21,319.69,45.0
-0.2563,-0.9658,-0.0233,0.0307,5.42,209.8,3.49,46.68
-0.1434,-0.9162,0.3635,0.0884,30.88,191.88,318.34,23.75
0.3933,-0.5944,0.7013,0.0023,293.42,145.7,271.12,20.56
0.7169,-0.0085,0.6826,-0.1416,202.34,290.59,81.66,41.28
0.6538,0.3223,0.6726,-0.1275,254.26,259.25,84.05,52.98
0.3687,0.3746,0.8505,0.0204,280.05,198.36,125.73,54.94
0.2372,0.3217,0.9166,0.0074,307.85,188.9,139.26,49.93
0.0909,0.2065,0.947,-0.2286,351.08,208.16,154.28,52.98
-0.3233,-0.072,0.939,-0.0915,72.87,195.76,193.99,45.0
-0.5106,-0.3549,0.7793,0.0773,116.58,207.42,244.47,30.38
-0.5945,-0.4754,0.6345,-0.1343,77.61,250.73,281.76,11.84
-0.6439,-0.4741,0.5231,-0.295,46.39,270.2,287.65,6.55
-0.6902,-0.4852,0.4153,-0.3401,28.14,280.95,295.9,1.68
-0.5975,-0.556,0.3657,-0.4474,353.07,276.57,289.44,4.76
-0.4092,-0.6212,0.2982,-0.5981,300.12,273.33,277.08,0.0
-0.3881,-0.7609,0.3774,-0.3575,330.91,242.76,298.33,2.68
-0.648,-0.6282,0.421,-0.0898,51.29,260.82,314.28,351.38
-0.6838,-0.6231,0.3172,-0.2087,20.0,271.3,316.27,6.88
-0.5546,-0.7748,0.1024,-0.2857,321.57,256.43,329.76,11.69
-0.3164,-0.9035,-0.0712,-0.2803,293.06,219.61,356.65,348.11
0.0598,-0.9882,-0.1053,-0.0938,340.09,171.95,12.86,338.84
0.5514,-0.8149,-0.0927,-0.1516,343.34,110.44,18.77,334.54
0.5827,-0.8013,-0.0098,-0.1353,336.3,106.89,10.2,324.46
0.5454,-0.8368,-0.0345,0.0323,10.53,113.87,1.3,322.55
0.7062,-0.6804,-0.1958,-0.006,31.14,90.15,16.58,327.2
0.8105,-0.5289,-0.2443,-0.0606,38.78,70.1,22.22,315.78
0.7748,-0.5754,-0.2598,0.0336,52.36,76.93,15.97,312.66
0.8517,-0.3839,-0.3088,0.1784,83.07,46.59,354.89,312.93
0.8914,-0.2688,-0.3551,0.0837,85.38,34.84,3.25,307.45
0.8533,-0.2996,-0.4264,0.0159,95.0,47.46,19.76,312.34
0.812,-0.306,-0.4931,0.0623,114.05,53.15,21.63,307.07
0.8718,-0.0019,-0.4602,0.1678,106.84,345.31,330.79,315.69
0.6994,0.4125,-0.3752,0.4472,17.92,292.51,288.81,301.91
0.6279,0.4836,-0.3407,0.5058,352.97,287.5,284.88,287.97
0.7087,0.5334,-0.2135,0.4093,344.6,290.05,305.37,296.23
0.7834,0.3448,-0.2397,0.4582,6.83,310.42,297.78,290.64
0.8329,0.2742,-0.1605,0.4532,2.16,322.96,302.53,298.99
0.8602,0.0701,-0.0005,0.5051,351.98,353.02,299.4,292.8
0.819,-0.1149,0.3175,0.464,311.15,32.03,293.83,299.98
0.7101,-0.2499,0.4764,0.4542,306.56,61.86,278.59,306.36
0.5884,-0.3587,0.5812,0.4328,316.13,85.85,266.9,308.39
0.4099,-0.4503,0.7007,0.3719,332.28,113.51,254.56,313.83
0.2073,-0.5584,0.7529,0.28,0.07,139.22,253.11,312.51
0.0165,-0.607,0.7621,0.2247,28.68,158.03,254.27,317.1
-0.1284,-0.6254,0.7469,0.1859,50.21,172.57,258.23,324.69
-0.1712,-0.5898,0.7442,0.2628,68.78,166.75,252.68,324.93
-0.1575,-0.5983,0.7003,0.3561,80.6,156.0,252.1,332.53
-0.147,-0.6057,0.6823,0.3822,83.14,152.67,252.65,327.82
-0.1414,-0.5785,0.6821,0.4245,86.31,145.29,246.51,332.1
-0.1211,-0.5012,0.6705,0.5335,88.41,124.05,229.22,330.99
-0.1337,-0.4477,0.6623,0.5857,89.1,112.97,217.76,328.32
-0.1306,-0.3988,0.662,0.621,83.87,105.17,209.45,329.53
-0.08,-0.3131,0.6497,0.6881,64.65,92.73,200.56,332.95
-0.0132,-0.2143,0.6368,0.7405,39.05,84.09,195.6,334.8
0.0389,-0.0797,0.6151,0.7835,8.83,76.63,189.17,328.06
0.0997,0.0246,0.6014,0.7923,341.72,73.8,187.47,329.84
0.1293,0.1323,0.5394,0.8215,318.18,65.79,184.27,324.54
0.1372,0.2371,0.4825,0.8319,296.41,60.24,179.97,325.08
0.1376,0.2734,0.4999,0.8102,289.02,64.49,176.46,330.85
0.1333,0.3009,0.5107,0.7942,284.22,67.88,173.03,326.75
0.1235,0.3446,0.504,0.7823,276.83,70.11,168.11,336.54
0.0811,0.3522,0.5467,0.7553,283.25,78.67,160.43,336.22
0.0503,0.3422,0.6057,0.7166,293.08,87.8,155.77,327.89
0.079,0.33,0.6175,0.7096,291.06,88.64,159.0,326.52
0.0758,0.2664,0.6858,0.673,304.89,95.35,162.71,321.1
0.0968,0.2674,0.6629,0.6926,300.16,91.45,165.27,317.91
0.1632,0.2967,0.6446,0.6855,283.8,90.51,168.36,326.31
0.1151,0.2271,0.7656,0.5907,307.2,107.92,166.32,325.3
0.0541,0.0347,0.7413,0.6681,345.46,95.86,181.21,318.89
-0.1186,-0.3508,0.5227,0.7678,83.02,73.93,194.28,316.88
-0.0233,-0.3737,0.3798,0.8459,81.06,55.34,198.77,322.22
-0.0164,-0.1411,0.4231,0.8949,30.91,51.34,185.36,327.07
-0.0922,-0.0485,0.1009,0.9894,13.16,11.07,169.99,323.64
-0.1267,0.0757,-0.1606,0.9759,338.28,342.56,166.88,331.75
-0.178,0.1395,0.0085,0.9741,328.82,3.94,158.75,346.94
-0.107,0.2743,0.1002,0.9504,300.01,16.72,162.65,336.33
-0.1128,0.4206,0.0849,0.8962,265.43,21.36,156.22,334.54
-0.1623,0.5513,0.1497,0.8046,246.04,50.4,128.54,328.89
-0.2165,0.5839,0.2743,0.7328,265.05,75.64,109.38,324.66
-0.2523,0.6468,0.3174,0.6459,275.02,92.98,92.79,315.73
-0.286,0.6504,0.3769,0.5942,292.25,99.02,89.34,313.49
-0.2717,0.6556,0.3652,0.6024,287.47,99.03,89.48,311.53
-0.2625,0.6778,0.3731,0.5766,288.3,104.09,85.99,309.35
-0.2456,0.7146,0.337,0.5617,280.84,108.8,79.4,307.5
-0.2836,0.6961,0.3683,0.5472,292.89,106.76,81.03,318.09
-0.2962,0.6597,0.3948,0.5667,298.15,102.26,86.93,316.3
-0.2425,0.6925,0.2994,0.61,271.21,101.16,83.84,315.71
-0.2042,0.7513,0.2329,0.5827,257.38,112.33,70.14,312.58
-0.224,0.7291,0.2769,0.5845,266.52,108.41,76.21,325.71
-0.2185,0.6929,0.2784,0.6282,263.0,100.01,85.19,304.56
-0.1873,0.7316,0.2396,0.6101,253.17,108.11,76.35,322.03
-0.1837,0.7009,0.2225,0.6523,247.26,98.47,84.81,314.22
-0.1356,0.5808,0.2026,0.7767,244.18,62.76,122.9,313.88
-0.1795,0.5145,0.2045,0.8132,260.48,53.2,128.96,314.22
-0.2736,0.5189,0.2294,0.7767,274.23,60.91,115.19,327.34
-0.2857,0.586,0.2092,0.7288,265.45,70.58,102.76,318.09
-0.2576,0.5878,0.1837,0.7446,257.37,67.26,106.39,329.59
-0.2537,0.5514,0.212,0.7659,265.03,63.45,112.92,317.42
-0.2558,0.5349,0.2664,0.7599,274.84,67.16,113.78,319.4
-0.226,0.5471,0.2179,0.776,262.72,62.36,116.93,323.81
-0.2303,0.569,0.2405,0.7519,263.7,69.21,111.67,311.53
-0.251,0.6438,0.277,0.6677,267.78,88.54,93.73,320.63
-0.2316,0.6624,0.2441,0.6694,258.63,89.69,91.38,308.09
-0.2525,0.598,0.1947,0.7353,257.27,70.46,104.58,329.98
-0.1909,0.4249,0.2029,0.8613,278.24,42.6,138.47,319.64
-0.2242,0.3888,0.2923,0.8445,296.59,51.73,134.58,327.2
-0.2951,0.3222,0.3107,0.8441,317.73,50.02,131.51,332.1
-0.2643,0.224,0.4112,0.8431,341.54,55.34,140.34,322.05
-0.2066,0.1569,0.3232,0.9101,342.5,41.36,151.12,315.6
-0.2066,0.1185,0.3429,0.9087,351.55,42.37,152.74,322.05
-0.1865,0.0792,0.34,0.9184,357.85,40.85,156.64,314.45
-0.1532,0.0854,0.3768,0.9096,355.43,45.4,159.93,316.67
-0.1363,0.052,0.3809,0.9131,1.02,45.21,163.23,314.45
-0.0865,0.0439,0.3896,0.9159,358.5,46.16,168.89,315.56
0.0136,0.0511,0.4341,0.8993,348.1,51.59,178.86,314.05
0.128,0.0412,0.4544,0.8806,338.24,53.54,191.04,313.24
0.2327,0.0346,0.438,0.8677,329.4,50.47,202.78,317.05
0.3289,-0.0819,0.3516,0.8726,349.87,42.08,219.35,316.49
0.499,-0.0796,0.3198,0.8015,337.9,37.11,240.1,308.48
0.6835,-0.0644,0.3088,0.6583,320.56,31.69,266.5,309.88
0.8503,-0.0422,0.2591,0.4562,312.59,19.67,299.41,309.09
0.9197,-0.0669,0.0891,0.3766,346.95,11.03,314.83,300.39
0.943,-0.1056,0.0153,0.3153,4.33,12.06,323.26,302.1
0.8895,-0.2919,-0.0061,0.3514,24.95,31.84,320.46,305.99
0.8129,-0.3533,-0.2248,0.4047,81.3,31.16,318.87,307.16
0.8273,-0.3295,-0.2088,0.4043,75.46,28.41,317.8,305.17
0.8908,-0.2914,-0.1183,0.328,47.39,28.83,325.74,303.69
0.8906,-0.2858,-0.1199,0.3327,47.64,27.99,325.05,301.14
0.879,-0.1226,-0.1818,0.4235,50.11,3.9,309.42,303.27
0.8371,-0.0873,-0.2853,0.4585,67.8,352.01,300.13,303.3
0.8031,-0.1929,-0.3182,0.4653,87.37,1.09,300.26,302.51
0.8278,-0.0909,-0.37,0.4118,86.85,347.73,302.21,305.17
0.7645,-0.1247,-0.4617,0.4322,108.92,338.98,290.14,298.27
0.7514,-0.0996,-0.5089,0.4081,115.55,330.11,286.23,303.98
0.6658,0.1177,-0.542,0.499,74.37,298.87,263.83,302.4
0.6856,0.2732,-0.5013,0.4517,52.28,292.82,275.72,296.37
0.6827,0.24,-0.5338,0.4375,62.51,291.62,273.18,296.94
0.6388,0.5587,-0.4681,0.246,37.72,266.2,297.75,301.78
0.574,0.6017,-0.4863,0.2685,27.2,258.31,293.2,299.12
0.4932,0.6066,-0.578,0.2338,33.31,245.05,283.43,296.11
0.4436,0.581,-0.6457,0.2207,36.89,237.55,274.15,295.12
0.484,0.505,-0.6922,0.1775,58.78,237.48,268.6,294.23
0.459,0.5226,-0.7177,0.0331,77.25,222.46,267.63,295.61
0.343,0.5322,-0.7626,-0.1325,83.24,192.6,254.63,289.78
0.1503,0.5451,-0.7403,-0.3635,76.46,151.54,242.68,293.5
-0.0922,0.3448,-0.7377,-0.5731,30.04,109.74,219.51,292.0
-0.2426,0.2005,-0.6893,-0.6525,351.65,91.77,216.49,291.14
-0.4133,0.051,-0.6116,-0.6727,308.18,74.08,223.43,290.47
-0.5857,-0.2523,-0.3235,-0.699,265.94,13.29,254.12,291.6
-0.602,-0.5715,0.064,-0.554,292.43,294.04,297.06,293.88
-0.4028,-0.7982,0.3995,-0.2027,359.8,233.61,306.78,289.08
-0.1084,-0.675,0.693,0.2287,54.64,168.92,265.79,298.38
0.1172,-0.4151,0.7894,0.4367,20.46,126.91,230.35,298.12
0.2132,-0.3351,0.7661,0.5053,1.38,113.49,226.8,301.78
0.295,-0.3076,0.5847,0.6903,9.16,82.68,230.3,303.21
0.3097,-0.69,0.1252,0.6419,107.85,88.39,284.23,299.34
0.0941,-0.8524,-0.373,0.3542,84.75,188.07,50.4,299.02
-0.159,-0.7505,-0.641,0.0248,340.81,195.92,79.66,298.52
-0.2003,-0.6054,-0.7694,-0.0368,318.69,191.46,101.51,298.79
-0.0296,-0.2494,-0.8202,-0.5139,324.5,119.57,156.56,299.0
0.2868,0.1893,-0.4443,-0.8273,69.23,49.58,158.14,301.01
0.3825,0.4684,0.0971,-0.7904,83.56,316.65,111.1,306.29
0.2514,0.6373,0.457,-0.5673,59.11,254.67,94.04,308.37
0.0789,0.6517,0.6931,-0.2978,32.38,212.47,98.27,312.25
-0.2944,0.6253,0.7169,0.0912,35.89,148.36,92.68,315.15
-0.7934,0.1948,0.4972,0.2922,84.91,54.37,63.0,314.86
-0.8364,0.1277,-0.0294,0.5322,338.67,10.69,63.93,318.69
-0.844,-0.0978,0.0004,0.5273,11.92,350.47,63.49,323.47
-0.859,-0.2037,-0.009,0.4696,20.27,338.65,55.41,323.71
-0.8697,-0.2297,-0.0755,0.4303,7.61,332.26,51.71,320.53
-0.9445,-0.1775,-0.2059,0.1845,322.26,334.24,26.46,322.46
-0.9286,-0.1993,-0.2565,0.1796,312.25,329.64,28.47,322.67
-0.8933,-0.0423,-0.377,0.2408,278.42,340.15,37.62,325.85
-0.933,0.175,-0.2969,0.1039,287.63,19.15,6.4,324.69
-0.9071,0.3123,-0.2795,0.0387,295.82,40.04,352.92,326.67
-0.8482,0.4834,-0.2154,0.0242,314.25,61.48,349.54,322.75
-0.8203,0.498,-0.2792,0.0324,301.27,66.46,345.04,326.66
-0.8743,0.3805,-0.2921,-0.0736,305.88,52.69,336.79,326.52
-0.8804,0.3616,-0.1963,-0.2359,339.84,47.79,325.53,327.39
-0.8377,0.4243,-0.1488,-0.3099,1.56,53.44,319.8,326.95
-0.7806,0.446,-0.0315,-0.4367,39.8,50.34,310.97,324.04
-0.6477,0.533,0.1223,-0.5305,92.77,54.36,306.18,325.12
-0.5516,0.6393,0.1304,-0.5197,107.86,75.38,316.32,324.77
-0.5251,0.6582,0.0992,-0.5302,106.69,79.01,314.44,326.31
-0.5125,0.672,0.0507,-0.5322,100.2,81.78,311.91,325.33
-0.4344,0.7332,0.0537,-0.5204,108.16,97.93,320.47,327.71
-0.2731,0.8397,0.0992,-0.4589,111.13,139.46,351.46,327.79
-0.3876,0.8576,-0.0054,-0.338,70.28,125.17,340.63,327.51
-0.5024,0.8124,-0.0795,-0.285,45.06,111.12,333.27,329.64
-0.5453,0.7615,-0.1528,-0.3152,36.53,102.57,322.62,327.04
-0.5761,0.6865,-0.2445,-0.3702,26.19,93.66,308.5,328.15
-0.6354,0.5839,-0.321,-0.3901,5.45,83.57,299.35,325.97
-0.6596,0.4903,-0.4268,-0.3774,337.74,80.92,290.95,323.17
-0.6019,0.4682,-0.3977,-0.5103,359.89,75.8,279.37,322.41
-0.6288,0.3521,-0.4446,-0.532,338.73,68.71,272.26,322.07
-0.6389,0.2584,-0.4883,-0.5353,319.34,65.45,266.94,322.07
-0.6299,0.2322,-0.4391,-0.597,327.97,58.2,264.11,322.31
-0.6416,0.1958,-0.4124,-0.6164,326.53,52.48,264.01,321.48
-0.6623,0.1451,-0.387,-0.6249,321.31,45.76,265.11,322.07
-0.6576,0.1341,-0.3016,-0.6772,335.17,36.79,264.18,322.07
-0.6662,0.0277,-0.289,-0.6869,319.38,27.57,263.22,322.34
-0.6515,0.0014,-0.3001,-0.6968,314.2,27.12,260.56,317.46
-0.6328,0.0454,-0.3316,-0.6982,318.25,33.86,257.95,318.29
-0.6205,-0.0092,-0.336,-0.7085,309.07,30.98,255.26,318.21
-0.5921,-0.0695,-0.4169,-0.6862,287.83,37.31,249.03,318.19
-0.5424,-0.226,-0.3737,-0.7177,266.28,25.21,243.1,318.99
-0.5243,-0.1817,-0.3312,-0.7632,282.69,23.78,240.53,315.46
-0.6598,-0.1441,-0.3384,-0.6553,281.11,19.15,263.46,317.09
-0.9045,-0.0302,-0.351,-0.2404,279.0,8.63,327.04,316.68
-0.9578,-0.0866,-0.264,-0.0733,297.55,351.44,353.65,320.91
-0.9134,-0.0782,-0.2991,-0.2648,288.01,1.11,327.3,321.0
-0.9044,-0.1164,-0.2994,-0.2808,285.25,356.95,326.53,320.96
-0.9105,-0.0447,-0.315,-0.2642,286.66,6.09,325.61,319.25
-0.9022,0.0232,-0.3344,-0.2716,287.59,16.08,321.21,319.67
-0.9504,0.0983,-0.1887,-0.2269,323.39,16.68,330.44,323.67
-0.97,0.1214,-0.112,-0.1786,339.96,16.25,337.7,321.83
-0.9585,0.1823,-0.1797,-0.1254,325.22,24.42,341.31,321.08
-0.951,0.1202,-0.2843,-0.018,295.12,16.44,353.02,323.88
-0.9404,0.1774,-0.2874,0.0389,292.66,21.96,358.02,323.09
-0.9311,0.2409,-0.2675,0.0595,296.43,29.36,358.78,324.28
-0.9354,0.2618,-0.2122,0.1074,306.1,29.88,5.78,322.81
-0.948,0.2289,-0.1612,0.1518,315.95,24.54,13.34,326.2
-0.9504,0.1705,-0.1496,0.2126,318.18,16.19,22.22,324.26
-0.8921,-0.0095,-0.2652,0.3657,304.43,346.21,48.01,323.56
-0.872,-0.0604,-0.275,0.4004,308.91,338.84,54.17,324.9
-0.8989,0.0006,-0.1931,0.3932,319.31,350.75,48.91,324.55
-0.9136,0.0824,-0.1222,0.3789,326.8,3.46,44.55,323.24
-0.9208,0.2139,0.0696,0.3188,359.07,25.99,38.08,324.26
-0.7791,0.4218,0.4508,0.1093,75.2,72.53,44.02,324.31
-0.6061,0.5627,0.5481,0.125,63.17,105.95,64.42,321.4
-0.5317,0.5961,0.5432,0.2586,31.25,108.2,73.34,322.8
-0.3832,0.6467,0.6288,0.1989,25.97,130.07,82.33,323.86
-0.2351,0.6786,0.6819,0.1388,15.2,149.14,88.18,322.75
-0.2434,0.6521,0.69,0.1984,8.85,143.63,91.78,322.61
-0.2543,0.6057,0.74,0.144,23.3,147.84,98.03,323.17
-0.2881,0.5715,0.7628,0.092,39.08,150.11,101.06,326.31
-0.351,0.4772,0.8042,-0.0482,75.27,161.03,112.11,322.35
-0.3993,0.4197,0.7901,-0.2001,106.08,178.19,123.15,321.92
-0.3339,0.3971,0.7844,-0.3398,105.07,206.13,139.36,319.9
-0.2611,0.4681,0.7438,-0.3993,99.33,212.69,131.08,320.28
-0.156,0.5099,0.7796,-0.3285,70.64,205.64,121.92,318.49
-0.1006,0.5086,0.8093,-0.2761,52.67,202.61,121.06,318.94
-0.0407,0.5091,0.8312,-0.2195,33.86,199.76,119.99,319.03
0.0588,0.4779,0.8626,-0.1549,5.35,198.9,122.47,317.1
0.2087,0.4128,0.8738,-0.1501,332.14,206.6,126.12,319.71
0.2548,0.4059,0.8614,-0.1684,324.82,211.42,124.55,319.71
0.3692,0.4187,0.8103,-0.1783,306.63,222.02,114.94,319.9
0.4171,0.3914,0.7658,-0.2939,311.75,238.32,112.26,322.04
0.4398,0.4287,0.7174,-0.3287,319.12,244.93,105.19,319.27
0.4683,0.4398,0.7165,-0.2718,308.81,242.7,101.15,318.16
0.4867,0.4826,0.673,-0.2781,314.51,246.24,93.76,321.61
0.4573,0.5351,0.6627,-0.2558,321.18,241.43,90.55,321.22
0.4264,0.5665,0.6648,-0.2351,325.02,236.54,89.67,322.34
0.3884,0.5914,0.704,-0.0613,303.36,218.31,89.91,322.87
0.3851,0.5441,0.7305,0.1485,267.19,197.03,99.3,331.66
0.4092,0.5481,0.6994,0.2072,253.82,195.33,96.14,328.89
0.5723,0.5909,0.5632,0.0783,265.02,240.5,58.47,324.56
0.6791,0.5894,0.433,0.0631,277.02,264.66,34.54,319.96
0.5267,0.6342,0.5131,0.239,244.95,231.95,48.0,317.71
0.3936,0.6631,0.5431,0.3323,239.49,198.95,67.57,318.14
0.3451,0.6085,0.5839,0.4119,230.54,171.78,92.86,318.72
0.3301,0.4921,0.6065,0.5301,225.51,124.66,140.33,318.63
0.3092,0.4328,0.6561,0.5353,239.29,118.45,151.38,320.96
0.3022,0.433,0.6491,0.5476,239.88,115.84,152.41,321.91
0.2972,0.4413,0.6917,0.4883,245.26,129.97,143.57,320.23
0.2021,0.4241,0.7494,0.4665,271.37,132.46,141.33,320.83
0.2498,0.3951,0.761,0.4499,265.27,133.99,146.22,320.07
0.2725,0.3633,0.772,0.4447,263.87,133.03,151.53,317.18
0.3103,0.4101,0.7628,0.3921,254.71,145.5,140.94,321.2
0.2793,0.3885,0.814,0.3292,269.45,153.04,140.39,321.2
0.2839,0.3812,0.8466,0.2396,276.9,165.36,137.1,322.85
0.2846,0.3743,0.864,0.18,282.41,172.77,135.71,318.2
0.3645,0.4078,0.8369,0.0205,282.37,199.72,121.04,318.53
0.4071,0.4008,0.82,-0.0364,280.65,210.1,116.82,315.78
0.4529,0.3716,0.81,0.0255,262.35,206.65,118.43,317.03
0.5402,0.381,0.7503,-0.0097,253.11,225.68,102.22,318.16
0.5514,0.3488,0.7576,0.0189,243.87,222.31,106.32,317.93
0.6012,0.3545,0.7159,0.0203,237.87,235.16,93.06,315.99
0.6762,0.2807,0.681,-0.0128,227.92,257.9,79.76,315.5
0.7128,0.2127,0.6682,-0.013,217.45,272.96,70.58,316.3
0.7453,0.1959,0.6347,-0.0568,225.0,287.89,60.6,315.5
0.7629,0.1308,0.6272,-0.0866,221.75,300.15,56.21,316.88
0.784,0.0906,0.6116,-0.0556,216.79,318.27,38.86,317.09
0.8277,0.0916,0.5507,-0.0573,231.4,330.32,26.83,319.01
0.8294,0.0507,0.549,-0.0903,231.29,334.96,28.34,320.66
0.7848,0.0035,0.6142,-0.0831,211.1,336.32,30.19,319.25
0.7513,-0.035,0.6471,-0.1245,202.3,325.87,47.15,319.87
0.7109,-0.0997,0.6659,-0.2031,198.29,305.96,78.84,321.23
0.7025,-0.1314,0.639,-0.2845,206.91,309.73,84.72,320.28
0.695,-0.1213,0.6006,-0.3762,224.33,311.32,90.68,321.2
0.6941,-0.1015,0.434,-0.5654,268.36,329.87,91.31,321.1
0.5975,-0.0603,0.2936,-0.7437,307.72,336.03,108.09,319.76
0.3474,-0.0205,0.1358,-0.9276,344.78,346.13,139.87,319.73
0.2167,0.0199,0.0462,-0.9749,2.16,354.33,154.88,321.16
0.0416,0.0356,0.0688,-0.9961,7.47,351.94,174.95,322.48
-0.1531,0.0266,0.0975,-0.983,9.42,349.38,197.27,322.84
-0.1745,-0.0741,0.0157,-0.9817,343.9,356.72,200.39,324.17
-0.1634,-0.1511,-0.0508,-0.9736,323.79,2.99,198.58,323.54
-0.1828,-0.12,0.0062,-0.9758,333.18,356.7,201.6,323.54
-0.2096,-0.0691,0.1201,-0.9679,350.44,344.79,205.07,323.58
-0.2931,-0.0292,0.1314,-0.9466,2.49,344.57,214.24,326.26
-0.3517,0.0085,0.0799,-0.9327,8.27,351.75,221.02,328.17
-0.3802,0.0425,0.0433,-0.9229,12.78,357.25,224.62,327.94
-0.4301,0.0529,-0.0102,-0.9012,9.93,3.67,231.18,329.83
-0.4826,0.034,-0.1092,-0.8683,354.68,12.87,237.83,328.31
-0.5069,-0.0636,-0.1553,-0.8455,329.28,11.86,240.28,332.63
-0.53,-0.1221,-0.154,-0.8249,317.22,7.7,243.99,330.45
-0.5021,-0.1578,-0.1716,-0.8328,308.42,8.13,240.31,330.81
-0.4103,-0.244,-0.12,-0.8704,296.88,0.59,230.31,328.49
-0.3681,-0.3394,0.0211,-0.8654,290.23,339.57,232.57,324.1
-0.4098,-0.3089,-0.0498,-0.8568,290.49,348.21,234.82,325.6
-0.4658,-0.2551,-0.1511,-0.8337,291.03,0.99,238.08,325.41
-0.5581,-0.2704,-0.1232,-0.7747,292.36,352.33,253.87,327.18
-0.6762,-0.3144,-0.0088,-0.6662,308.97,332.73,277.15,327.04
-0.7123,-0.3091,-0.0089,-0.6301,312.57,332.05,283.0,326.6
-0.7307,-0.2926,-0.0562,-0.6142,307.6,336.44,285.46,325.35
-0.8042,-0.3055,-0.116,-0.4965,301.33,334.44,303.41,327.04
-0.8375,-0.2697,-0.2219,-0.4203,286.49,340.66,313.18,327.52
-0.8674,-0.2608,-0.1931,-0.3773,295.74,338.77,319.16,327.28
-0.8797,-0.2543,-0.1754,-0.3616,300.99,338.39,321.06,328.98
-0.911,-0.2114,-0.1589,-0.3164,309.92,341.68,325.8,327.94
-0.9308,-0.092,-0.1375,-0.3258,323.17,355.06,322.22,329.33
-0.941,-0.0541,-0.1121,-0.3147,331.62,358.15,323.24,331.95
-0.9591,0.0101,-0.1504,-0.2397,327.03,5.48,331.14,330.95
-0.9722,0.0552,-0.1522,-0.169,327.8,9.52,338.93,335.1
-0.9672,0.086,-0.2156,-0.1031,312.93,13.29,345.05,333.36
-0.9611,0.0641,-0.2642,-0.0492,299.79,9.93,351.46,338.67
-0.9512,0.0874,-0.2959,-0.0034,291.56,11.75,355.96,339.07
-0.9591,0.1258,-0.2509,-0.0361,303.65,17.12,351.37,340.66
-0.9347,0.2635,-0.2039,-0.1238,323.15,34.92,339.08,339.87
-0.8924,0.3956,-0.1675,-0.1377,338.08,50.02,337.34,338.88
-0.7329,0.6228,-0.2406,-0.1304,338.05,83.66,330.0,337.11
-0.4491,0.834,-0.3037,-0.1028,348.38,125.35,322.99,334.43
-0.276,0.8975,-0.2866,-0.1899,21.05,142.07,320.95,338.79
-0.1307,0.9253,-0.2399,-0.263,50.17,156.02,325.52,340.06
0.0832,0.9113,-0.2419,-0.3227,77.86,179.68,330.16,340.65
0.2076,0.8857,-0.2283,-0.347,90.37,197.27,338.32,341.51
0.3173,0.8502,-0.1899,-0.3747,98.51,217.48,352.49,341.95
0.3227,0.8542,-0.2041,-0.3528,94.53,216.89,349.73,343.73
0.2147,0.9093,-0.2397,-0.2637,71.27,198.96,336.61,343.54
0.1083,0.936,-0.2753,-0.1908,49.27,186.17,328.57,343.98
0.072,0.9507,-0.2819,-0.1071,28.27,184.52,327.53,342.74
-0.1079,0.9637,-0.2423,0.03,347.36,168.78,332.4,342.87
-0.1757,0.9577,-0.2201,0.0594,337.98,161.57,335.9,341.83
-0.1944,0.9603,-0.1993,0.0174,347.26,158.37,337.77,343.87
-0.3362,0.9286,-0.1162,0.1053,328.22,141.4,351.33,340.14
-0.5789,0.7988,0.1193,0.1117,355.39,107.76,18.68,341.25
-0.7329,0.6233,0.2693,0.0425,39.98,85.24,25.06,341.87
-0.8939,0.3166,0.3169,0.0185,67.41,43.98,16.32,342.65
-0.9392,0.0696,0.3342,0.0371,77.02,11.46,8.55,338.53
-0.9457,-0.0912,0.3034,0.0723,71.9,350.85,5.77,337.87
-0.8819,-0.2379,0.3102,0.2636,84.51,339.76,25.39,337.34
-0.7862,-0.3155,0.2829,0.4498,93.56,339.34,50.54,337.43
-0.7917,-0.3427,0.3089,0.4005,99.55,332.79,40.85,340.41
-0.7947,-0.3511,0.3392,0.3607,104.83,329.1,33.34,339.29
-0.7313,-0.313,0.4298,0.4271,127.29,348.23,53.25,339.15
-0.6926,-0.2942,0.4623,0.4691,132.81,3.77,70.7,339.34
-0.6578,-0.3071,0.5146,0.4562,146.38,13.09,79.23,338.58
-0.5938,-0.3007,0.5564,0.4975,147.42,44.48,114.01,339.75
-0.5812,-0.2777,0.5304,0.5511,134.63,42.76,116.17,337.56
-0.5377,-0.2825,0.5562,0.5673,133.43,55.87,131.56,338.23
-0.5137,-0.3141,0.5633,0.5658,138.19,61.89,140.4,339.29
-0.5142,-0.4171,0.5362,0.5235,162.38,59.86,143.54,338.57
-0.5292,-0.43,0.5717,0.4563,171.91,109.41,187.09,337.32
-0.5209,-0.2945,0.6218,0.5053,141.96,80.58,150.55,339.21
-0.4821,-0.1838,0.6402,0.5692,111.48,78.45,146.17,338.4
-0.5079,-0.1816,0.6135,0.5768,112.74,70.9,139.04,337.73
-0.5777,-0.2249,0.5586,0.5511,126.57,52.32,120.98,339.14
-0.5918,-0.2261,0.5166,0.576,121.36,41.98,113.76,340.02
-0.599,-0.2329,0.4396,0.6275,109.94,28.37,107.65,338.14
-0.6278,-0.2672,0.3373,0.6486,100.74,9.2,96.2,339.13
-0.625,-0.2384,0.3618,0.6493,99.26,15.39,99.34,338.14
-0.6039,-0.3398,0.4168,0.5883,129.18,10.73,95.29,339.13
-0.6416,-0.4213,0.373,0.5213,133.24,337.54,63.33,338.09
-0.6995,-0.3512,0.2845,0.5536,103.78,343.39,68.6,338.7
-0.6008,-0.2711,0.4517,0.6013,120.62,26.04,105.35,339.29
-0.5428,-0.1012,0.4966,0.6697,84.84,48.79,121.92,337.72
-0.5398,0.1374,0.4555,0.6945,35.03,54.98,113.45,338.31
-0.5143,0.2355,0.3961,0.7233,7.65,54.8,111.16,336.8
-0.4387,0.3472,0.454,0.6934,350.46,69.65,112.04,338.26
-0.4772,0.1834,0.5149,0.6882,27.65,65.51,119.45,339.09
-0.5323,0.041,0.5278,0.6606,61.03,59.33,119.94,338.67
-0.6165,-0.0719,0.4203,0.6619,75.67,36.31,106.89,340.04
-0.7047,-0.1212,0.3154,0.6239,73.13,16.1,88.4,338.58
-0.745,-0.0388,0.356,0.5628,70.08,24.76,82.06,338.29
-0.7199,0.1269,0.4801,0.4849,69.25,51.98,85.21,338.46
-0.7393,0.2463,0.501,0.3765,67.47,63.06,75.05,339.46
-0.7821,0.2244,0.456,0.3608,66.91,54.58,67.16,339.58
-0.8349,0.1719,0.3946,0.3431,65.5,41.54,57.41,339.09
-0.8621,0.1481,0.4354,0.2129,86.88,37.38,43.1,339.29
-0.8493,0.0931,0.5189,-0.029,124.93,16.09,5.89,336.5
-0.8109,0.1646,0.5428,-0.144,136.15,17.24,351.56,333.51
-0.6969,0.3545,0.3995,-0.4786,127.31,14.57,300.12,332.54
-0.508,0.3438,0.3226,-0.7209,110.86,348.22,244.14,330.19
-0.2871,0.3589,0.2432,-0.8542,97.67,341.45,208.67,327.33
-0.0295,0.3815,0.0619,-0.9218,89.99,352.56,180.58,325.62
0.1509,0.267,-0.0661,-0.9495,63.61,3.04,162.81,322.71
0.3595,0.1289,-0.0597,-0.9223,32.6,1.03,137.55,321.82
0.4597,-0.0354,-0.0298,-0.8869,355.95,4.9,125.12,318.87
0.403,-0.2527,0.0416,-0.8786,302.94,8.55,128.55,318.68
0.2901,-0.404,0.2498,-0.8308,250.6,341.78,150.99,318.09
0.243,-0.3688,0.3727,-0.8161,256.92,316.37,168.72,319.21
0.4038,-0.2371,0.1808,-0.8649,292.43,351.61,132.5,320.19
0.5538,-0.0869,0.0665,-0.8254,334.92,359.21,112.37,319.17
0.7444,-0.2005,0.2485,-0.5864,285.53,0.5,76.28,317.16
0.7807,-0.2803,0.413,-0.376,242.35,14.21,43.4,314.4
0.7652,-0.3048,0.5052,-0.2574,223.08,34.19,13.55,315.95
0.6752,-0.3012,0.6662,-0.0974,213.19,104.01,289.09,317.89
0.6434,-0.1201,0.7501,-0.0943,197.82,175.17,202.33,320.04
0.6266,0.0351,0.7617,-0.1608,218.75,240.59,129.77,321.86
0.5675,0.1074,0.8119,-0.0849,230.8,217.26,140.86,322.21
0.5079,0.1687,0.8444,0.0228,240.11,195.38,148.5,321.78
0.4433,0.1676,0.8786,0.0585,254.01,184.36,156.23,323.88
0.4018,0.0999,0.906,0.0883,263.57,173.12,170.49,320.03
0.4219,0.0225,0.8674,0.2629,263.9,139.17,195.86,318.05
0.3436,0.009,0.8031,0.4867,291.8,110.51,202.74,317.63
0.1889,0.0904,0.6411,0.7383,315.86,79.95,190.14,319.56
0.1938,0.0634,0.6101,0.7656,321.03,74.78,193.46,320.3
0.2856,0.0904,0.7817,0.547,293.9,106.52,191.79,323.13
0.2695,0.1109,0.8703,0.397,292.29,130.51,181.45,320.48
0.2199,0.1458,0.8978,0.3526,300.31,139.01,172.93,320.8
0.1775,0.1615,0.9116,0.3337,308.88,142.35,168.76,318.63
0.1745,0.1641,0.9174,0.3179,309.75,144.48,167.88,321.04
0.0967,0.1435,0.9595,0.2225,331.11,155.66,166.12,322.65
0.0665,0.05,0.9789,0.1866,342.88,158.73,175.76,318.61
0.0475,-0.0794,0.9832,0.1572,352.16,161.49,189.88,318.81
-0.0136,-0.0611,0.9977,0.0275,3.5,176.95,186.96,319.05
0.084,0.0887,0.9902,0.0674,339.46,173.08,170.39,317.71
0.1391,0.4328,0.8809,0.1315,317.92,173.15,128.93,317.88
0.234,0.6598,0.66,0.2726,276.08,176.06,91.53,314.01
0.1618,0.8143,0.5405,0.1359,313.31,187.29,65.64,313.5
0.209,0.7857,0.5776,0.0729,318.29,195.15,69.84,311.24
0.4229,0.7204,0.4566,0.306,248.39,215.94,45.24,308.09
0.4937,0.6022,0.2766,0.5631,215.91,293.25,313.68,313.55
0.3828,0.5901,0.0968,0.7042,230.3,312.09,268.57,319.91
0.3519,0.5215,-0.0579,0.7751,259.7,314.53,251.03,322.37
0.2377,0.6019,-0.0252,0.762,230.28,310.19,247.52,318.66
0.1216,0.6206,-0.041,0.7735,216.33,316.53,230.08,324.38
0.0064,0.6305,-0.0693,0.7731,206.22,329.5,205.37,327.44
-0.1318,0.6828,-0.0588,0.7162,193.03,57.64,106.84,321.34
-0.2008,0.6926,-0.009,0.6927,211.18,81.37,81.41,322.97
-0.2522,0.6734,-0.0681,0.6915,210.06,71.18,82.41,321.02
-0.3402,0.6363,-0.158,0.6741,210.25,57.46,80.91,324.23
-0.343,0.5406,-0.2848,0.7134,209.63,352.01,134.8,320.58
-0.2268,0.3962,-0.5761,0.6779,254.01,272.11,194.33,317.34
-0.1772,0.1942,-0.8425,0.4702,302.48,235.62,190.56,327.69
-0.1242,-0.0181,-0.968,0.2175,333.1,205.95,174.75,333.61
-0.0621,-0.2392,-0.968,-0.0444,343.74,176.75,152.46,335.71
0.0489,-0.4576,-0.8192,-0.3421,333.06,141.51,126.35,343.05
0.0855,-0.5326,-0.7496,-0.3836,327.43,136.06,115.82,353.84
0.142,-0.6136,-0.656,-0.416,322.17,130.44,102.63,352.35
0.2498,-0.6975,-0.5398,-0.3995,326.57,125.49,84.13,352.71
0.2831,-0.7067,-0.6399,-0.1052,24.67,146.82,80.63,352.94
0.2207,-0.6957,-0.6829,-0.0304,30.04,158.84,86.12,337.62
0.2038,-0.7946,-0.5712,0.0276,32.13,162.28,68.91,336.54
0.1994,-0.7795,-0.5685,0.1719,59.29,172.36,70.18,341.05
0.2257,-0.7012,-0.6364,0.2291,74.96,178.2,83.84,337.2
0.18,-0.6674,-0.6924,0.2069,63.39,183.11,92.99,337.69
-0.0008,-0.7424,-0.6663,0.0699,11.8,185.44,84.1,344.13
-0.087,-0.829,-0.5329,-0.1459,320.91,179.31,65.59,350.03
-0.0837,-0.8985,-0.1669,-0.3973,264.23,181.52,20.37,358.78
-0.082,-0.7523,0.3278,-0.5655,254.29,234.93,283.94,11.62
-0.0515,-0.4842,0.67,-0.5603,303.47,245.39,233.34,19.03
-0.0575,-0.244,0.8149,-0.5226,341.43,243.06,207.64,20.6
-0.0252,-0.0728,0.8667,-0.4929,356.78,239.13,188.69,27.55
-0.0049,0.0147,0.8782,-0.4781,2.6,237.12,178.8,25.57
0.098,0.0447,0.8521,-0.5121,346.07,242.63,169.75,26.85
0.2478,0.0626,0.7483,-0.6122,325.8,262.33,155.45,28.35
0.4034,0.0616,0.5988,-0.6891,313.05,287.46,136.64,25.96
0.5008,-0.023,0.3721,-0.7811,311.76,322.28,123.02,23.2
0.4944,-0.0951,0.159,-0.8493,322.83,349.29,121.34,26.92
0.3775,-0.2172,-0.0836,-0.8963,321.92,19.39,131.04,20.91
0.1469,-0.3545,-0.3384,-0.8592,298.7,52.84,145.09,19.78
-0.0058,-0.4443,-0.5415,-0.7137,280.36,88.6,142.0,22.01
-0.0407,-0.4974,-0.6121,-0.6134,277.39,108.96,131.91,5.78
-0.0797,-0.5317,-0.6343,-0.5555,272.45,120.83,125.76,357.03
-0.0638,-0.5855,-0.6452,-0.4867,278.57,133.12,113.84,0.0
0.0196,-0.7273,-0.6062,-0.3212,307.35,152.2,86.24,0.0
0.0977,-0.8754,-0.4552,0.1298,36.86,176.8,54.42,351.87
0.2664,-0.782,-0.4576,0.3288,98.58,169.77,55.96,358.06
0.4907,-0.6392,-0.3884,0.447,144.57,112.99,10.96,351.16
0.6772,-0.4209,-0.2334,0.5565,103.38,30.03,295.98,334.36
0.59,-0.2862,-0.0362,0.7541,56.64,18.76,260.86,329.2
0.4541,-0.0972,-0.2115,0.86,42.11,342.82,232.46,317.12
0.3631,-0.0916,-0.2725,0.8863,42.23,333.48,219.52,325.22
0.1481,0.1133,-0.199,0.9621,341.7,335.05,199.53,314.03
0.1081,0.3726,0.051,0.9203,271.66,1.06,192.97,334.13
0.0728,0.572,0.1909,0.7944,221.02,38.9,162.94,319.24
0.023,0.5944,0.1991,0.7788,221.54,52.88,145.49,302.2
0.0106,0.6127,0.3032,0.7298,231.51,81.34,124.97,288.92
0.0451,0.6246,0.3787,0.6815,235.38,98.3,117.66,292.62
0.131,0.6222,0.4695,0.6126,235.42,117.55,114.31,284.35
0.2041,0.5914,0.5679,0.5349,240.35,133.25,115.61,290.1
0.1992,0.5486,0.6148,0.5305,248.42,129.53,124.53,284.3
0.1695,0.4721,0.6271,0.5959,258.34,111.58,141.86,285.07
0.1365,0.3861,0.6621,0.6277,276.56,103.54,152.92,276.24
0.0864,0.3138,0.6956,0.6405,297.04,101.13,157.53,289.38
0.0351,0.2446,0.7096,0.6599,316.25,97.85,161.08,289.54
-0.0031,0.1804,0.7164,0.6739,332.38,95.42,164.3,290.75
-0.0528,0.1185,0.7043,0.698,349.54,91.16,166.02,291.21
-0.096,0.0797,0.6808,0.7218,1.79,86.54,165.69,296.57
-0.1317,0.0425,0.6563,0.7417,12.61,82.19,165.36,298.24
-0.1656,0.0001,0.6135,0.7721,23.44,75.38,164.85,302.41
-0.1612,-0.0074,0.5622,0.8111,22.29,67.99,165.04,303.47
-0.1539,-0.0071,0.5247,0.8373,19.97,62.85,165.28,298.55
-0.1492,-0.012,0.4673,0.8713,18.45,55.23,165.4,302.01
-0.1453,0.0204,0.3812,0.9128,8.44,44.73,163.64,298.54
-0.1406,0.1057,0.2976,0.9384,346.82,36.31,160.8,299.64
-0.1539,0.192,0.1985,0.9487,324.7,27.21,157.27,303.18
-0.1669,0.282,0.0448,0.9437,297.69,12.05,156.57,299.64
-0.1966,0.417,-0.1042,0.8813,258.22,358.21,155.7,298.07
-0.2477,0.5228,-0.2582,0.7737,220.91,336.3,161.07,311.53
-0.1867,0.5663,-0.4707,0.6503,228.35,258.1,225.14,306.57
-0.1125,0.5931,-0.5837,0.5431,258.3,232.44,244.56,320.19
-0.1213,0.6235,-0.5577,0.5343,253.43,228.07,251.15,313.36
-0.111,0.6099,-0.6045,0.5003,263.78,224.68,249.72,329.42
-0.0517,0.5745,-0.6748,0.4603,286.44,224.54,245.31,322.13
-0.0136,0.5898,-0.659,0.4665,290.75,226.7,248.32,348.23
0.014,0.6233,-0.6336,0.4581,292.8,225.88,254.5,8.53
0.0888,0.5989,-0.6747,0.4221,314.62,227.12,253.19,325.18
0.1754,0.6141,-0.6592,0.3969,330.31,229.84,259.01,325.71
0.2757,0.6575,-0.5967,0.3683,342.13,234.28,270.97,352.41
0.3858,0.6748,-0.5327,0.3345,355.37,241.39,282.04,340.97
0.4512,0.7081,-0.45,0.3041,357.18,245.93,294.22,334.98
0.4998,0.78,-0.3196,0.1989,1.06,245.09,315.78,316.22
0.5775,0.7791,-0.2329,0.0729,17.88,250.95,333.09,310.91
0.5327,0.8324,-0.1075,-0.1085,34.33,244.66,356.19,318.01
0.5227,0.8134,-0.0064,-0.2552,49.9,249.1,16.42,300.8
0.463,0.8012,0.1261,-0.3575,54.28,249.22,36.8,298.74
0.3125,0.6795,0.2787,-0.6025,80.27,264.09,81.07,308.25
0.1023,0.4728,0.3881,-0.7845,82.96,289.63,135.25,295.38
-0.1445,0.1773,0.4081,-0.8838,51.09,312.03,187.05,290.88
-0.4971,-0.4089,0.18,-0.7438,309.15,311.7,259.07,296.57
-0.6635,-0.6648,0.0673,-0.3367,318.0,276.59,324.94,293.85
-0.7861,-0.5756,-0.0056,-0.2254,328.88,290.5,338.83,291.3
-0.8044,-0.5846,-0.0409,-0.0974,339.3,288.56,353.64,294.36
-0.7773,-0.6176,-0.0413,0.1123,8.55,283.55,13.07,297.42
-0.7468,-0.6083,-0.0645,0.2607,25.52,284.94,28.68,299.82
-0.7676,-0.5278,-0.2731,0.24,340.89,287.33,41.75,297.3
-0.7288,-0.456,-0.4808,0.1725,294.16,278.34,55.28,297.8
-0.7027,-0.2855,-0.6074,0.2363,268.12,278.2,77.5,298.02
-0.5351,-0.211,-0.7338,0.3615,281.49,257.62,115.91,300.83
-0.2572,-0.0148,-0.8832,0.392,307.46,231.32,165.28,304.34
0.0202,0.2287,-0.8567,0.4618,339.65,234.43,204.65,307.68
0.2081,0.4285,-0.6375,0.6055,330.61,259.27,235.63,309.29
0.3918,0.6196,-0.3871,0.5592,314.14,265.79,274.67,311.01
0.4192,0.8269,-0.1386,0.3482,305.26,242.79,324.07,311.22
0.3296,0.9019,0.2551,0.1137,316.17,215.33,24.53,312.03
0.1982,0.7957,0.562,0.1082,313.47,192.17,67.95,316.09
0.2534,0.6494,0.7169,-0.0052,318.23,201.12,91.72,318.5
0.4083,0.3497,0.8087,-0.2387,300.86,230.56,119.02,320.92
0.2445,0.1441,0.8769,-0.3878,323.04,232.33,152.19,321.6
0.215,-0.0462,0.8495,-0.4796,311.64,240.63,171.95,324.02
0.3799,-0.1943,0.7599,-0.4905,259.67,248.93,173.06,325.6
0.6224,-0.2818,0.6458,-0.3408,190.3,274.51,137.78,325.13
0.7775,-0.3072,0.5122,-0.1972,226.87,43.87,358.85,324.25
0.9032,-0.3236,0.2793,0.0395,302.78,43.71,343.31,322.3
0.9726,-0.1205,-0.1018,0.171,27.69,11.87,341.51,323.48
0.8718,0.0666,-0.3787,0.3035,76.6,333.83,312.38,322.3
0.7786,0.2346,-0.4078,0.4153,52.23,308.37,291.04,320.01
0.7056,0.3347,-0.3687,0.5041,21.07,300.85,282.92,318.9
0.6871,0.4043,-0.3027,0.5223,359.26,299.33,285.74,316.65
0.7226,0.2989,-0.2649,0.5641,5.23,312.97,282.91,319.08
0.7509,0.2014,-0.1602,0.6082,359.49,330.17,282.05,319.15
0.7426,0.0832,0.0748,0.6603,334.47,358.54,276.88,319.85
0.7224,0.0124,0.1463,0.6758,333.63,10.64,272.58,317.51
0.7063,-0.1194,0.2128,0.6645,343.68,27.14,271.52,317.26
0.7497,-0.2497,0.2519,0.5586,348.66,41.23,284.49,319.57
0.8399,-0.3053,0.3768,0.2438,302.1,52.75,313.03,318.73
0.8356,-0.2961,0.3918,0.2461,298.79,53.03,311.64,321.58
0.7918,-0.3428,0.3638,0.3511,320.81,57.92,301.25,320.92
0.706,-0.3588,0.2942,0.5351,356.39,55.27,284.73,323.2
0.7068,-0.311,0.4576,0.4407,316.22,65.3,281.99,320.67
0.7175,-0.2532,0.5988,0.25,265.78,76.86,283.42,321.89
0.7255,-0.1763,0.6543,0.1206,229.87,78.83,285.79,319.21
0.7318,-0.1941,0.6417,0.1224,233.81,77.11,288.87,320.83
0.7368,-0.205,0.6288,0.1404,239.29,75.35,290.07,321.75
0.715,-0.2106,0.6532,0.1329,237.15,83.05,283.44,321.63
0.7067,-0.2965,0.6093,0.2032,264.4,83.02,285.08,322.67
0.7238,-0.3967,0.4815,0.2949,304.84,75.52,294.13,320.92
0.7357,-0.4071,0.4369,0.3197,315.01,71.92,296.61,322.33
0.7658,-0.3601,0.4579,0.2722,299.29,68.15,300.07,322.36
0.788,-0.3897,0.394,0.2682,311.36,64.95,306.79,323.53
0.8225,-0.3292,0.3355,0.3203,320.13,53.58,307.31,323.2
0.848,-0.2562,0.2908,0.3614,324.12,42.66,306.78,324.29
0.8708,-0.2109,0.2388,0.3744,330.11,34.42,308.81,322.83
0.9033,-0.2263,0.2388,0.2753,324.26,34.59,320.5,321.87
0.9205,-0.1545,0.2904,0.211,304.02,27.44,327.22,321.8
0.9345,-0.0625,0.233,0.262,312.51,15.12,325.48,322.24
0.8985,-0.097,0.0809,0.4204,352.68,14.05,309.41,322.1
0.9073,-0.003,0.0445,0.4182,351.02,2.46,310.41,321.58
0.916,0.1806,0.1242,0.3361,319.16,344.69,322.47,321.79
0.8652,0.2545,0.3248,0.2849,270.02,338.83,332.4,323.23
0.528,0.3263,0.7779,0.0986,235.32,204.32,119.64,323.06
0.5799,0.329,0.744,-0.0432,246.87,234.02,101.61,323.62
0.8141,0.3502,0.4583,-0.0677,271.34,297.9,37.06,324.1
0.8891,0.3707,0.2417,-0.1168,319.86,310.37,24.32,324.25
0.9151,0.3586,0.1318,-0.1293,342.91,315.73,19.56,322.94
0.9145,0.3944,-0.0186,-0.0885,11.93,313.79,8.51,324.29
0.9134,0.4029,-0.0199,-0.0541,9.17,312.59,4.77,324.02
0.9512,0.2629,-0.1371,-0.0855,35.6,329.96,5.46,321.98
0.9784,0.1236,-0.1509,0.0681,32.33,344.15,349.77,321.77
0.6672,-0.0505,-0.5553,0.4937,104.53,308.17,260.18,322.11
0.5561,-0.2769,-0.7289,0.2876,151.86,207.24,159.81,317.09
0.4794,-0.5793,-0.6591,-0.0136,76.07,133.28,80.43,316.66
0.4786,-0.743,-0.4658,-0.044,44.72,125.58,52.56,317.25
0.4895,-0.7722,-0.4044,-0.0243,42.01,123.82,43.99,316.07
0.3676,-0.8471,-0.3582,0.1377,59.56,142.85,35.63,316.77
0.0906,-0.9336,-0.299,0.1756,44.93,176.02,34.73,314.04
-0.0899,-0.9702,-0.2229,-0.0322,348.22,189.26,25.4,314.15
-0.2476,-0.8921,-0.1746,-0.3351,273.63,206.46,11.51,312.37
-0.3344,-0.7686,-0.055,-0.5425,238.9,247.57,325.51,313.7
-0.4228,-0.6142,0.1288,-0.6537,272.08,287.15,278.96,315.46
-0.5016,-0.4321,0.1974,-0.723,309.47,307.35,262.15,317.02
-0.5224,-0.342,0.1717,-0.762,320.03,318.8,256.44,315.92
-0.5638,-0.267,0.3125,-0.7164,356.54,311.48,257.18,316.23
-0.571,-0.3067,0.3216,-0.6903,353.57,307.3,260.79,318.61
-0.5772,-0.2939,0.3374,-0.6831,358.62,306.83,260.74,317.77
-0.5871,-0.3019,0.3268,-0.6763,357.17,307.18,262.63,317.85
-0.587,-0.3355,0.3419,-0.6526,355.81,302.79,265.08,318.92
-0.5994,-0.2764,0.402,-0.6346,15.07,301.9,262.55,318.63
-0.6322,-0.1343,0.4174,-0.6388,41.74,311.2,259.86,317.85
-0.6651,-0.0428,0.3854,-0.6382,54.51,321.87,262.78,319.85
-0.6819,0.0287,0.3459,-0.6439,61.15,331.84,265.44,321.31
-0.7053,0.0955,0.2443,-0.6586,56.12,347.76,270.85,319.61
-0.7296,0.1066,0.1475,-0.6592,41.68,357.62,275.36,320.86
-0.7523,0.1211,0.0487,-0.6458,26.57,7.04,279.54,319.64
-0.7428,0.1443,0.0183,-0.6535,24.93,11.25,278.56,323.3
-0.6956,0.1014,0.1257,-0.7,36.95,357.9,269.3,320.86
-0.6423,0.031,0.2314,-0.7301,40.06,341.5,259.38,320.45
-0.6226,-0.0554,0.3229,-0.7107,37.72,326.09,256.64,320.19
-0.602,-0.1399,0.3964,-0.6789,33.4,312.45,255.73,318.9
-0.5734,-0.267,0.4478,-0.632,20.28,297.63,258.29,320.31
-0.5365,-0.3999,0.4824,-0.5653,7.51,282.43,263.98,315.98
-0.5057,-0.5025,0.4871,-0.5044,358.37,271.17,270.94,317.94
-0.4304,-0.5959,0.4639,-0.4945,338.1,261.77,274.71,317.89
-0.4287,-0.6447,0.4203,-0.4732,331.07,259.01,281.85,315.0
-0.3289,-0.7688,0.3852,-0.3903,319.43,239.29,295.15,315.47
-0.3277,-0.7908,0.3977,-0.3302,329.66,234.01,298.85,314.36
-0.3393,-0.753,0.4391,-0.3536,332.88,237.68,292.01,313.73
-0.3147,-0.7327,0.4548,-0.3966,325.7,239.33,286.52,317.94
-0.3323,-0.7127,0.4147,-0.4579,315.7,247.14,284.81,316.55
-0.3022,-0.7345,0.379,-0.4749,304.12,245.5,287.23,312.77
-0.3037,-0.6974,0.43,-0.4863,310.69,247.86,279.96,314.36
-0.2818,-0.6866,0.4589,-0.4885,311.33,246.46,276.4,314.84
-0.2342,-0.7647,0.401,-0.4467,300.6,235.57,288.76,313.24
-0.2006,-0.8134,0.4095,-0.3612,309.9,223.37,296.46,313.73
-0.2064,-0.826,0.4259,-0.306,321.5,219.59,298.46,312.77
-0.2311,-0.8243,0.4818,-0.1872,350.13,214.3,297.86,311.92
-0.2333,-0.8361,0.4924,0.0632,39.2,200.37,302.56,311.94
-0.1711,-0.8564,0.4246,0.2388,67.32,186.23,309.14,310.78
-0.181,-0.8713,0.2791,0.3608,93.74,189.6,328.64,312.64
-0.211,-0.867,0.0958,0.4411,107.29,208.33,1.93,314.36
-0.2406,-0.8194,-0.1252,0.505,100.23,234.3,44.34,313.64
-0.3989,-0.8037,-0.3324,0.2908,23.33,238.43,51.48,315.16
-0.5092,-0.7007,-0.4912,0.0921,316.44,239.99,57.38,317.15
-0.5179,-0.5667,-0.6307,-0.1133,257.18,225.4,73.35,321.34
-0.4451,-0.4251,-0.7447,-0.2582,236.13,179.25,121.02,324.46
-0.5304,-0.3308,-0.745,-0.2329,218.42,180.67,131.65,325.18
-0.5983,-0.2842,-0.7136,-0.228,200.82,184.65,132.69,326.02
-0.6006,-0.2885,-0.7216,-0.1879,205.56,199.93,120.44,329.33
-0.5799,-0.2454,-0.7665,-0.1259,216.06,197.22,131.94,328.82
-0.6113,-0.2464,-0.7335,-0.1663,203.73,196.19,129.69,330.54
-0.6095,-0.2953,-0.7066,-0.2048,201.54,202.19,116.2,328.76
-0.6566,-0.3729,-0.6499,-0.0864,226.77,251.96,69.29,328.21
-0.6679,-0.4636,-0.5816,-0.0276,253.27,259.74,57.34,326.9
-0.6096,-0.596,-0.5115,0.1073,300.57,254.39,58.51,325.98
-0.5241,-0.6633,-0.4964,0.1972,330.01,247.3,63.61,324.21
-0.5788,-0.6472,-0.4807,0.1227,313.15,250.92,56.4,322.06
-0.5815,-0.6453,-0.4943,0.0348,296.0,247.73,53.12,322.84
-0.5383,-0.6575,-0.5269,-0.0155,288.01,238.73,56.69,321.75
-0.4865,-0.7147,-0.4977,-0.0693,288.62,230.47,52.45,321.13
-0.4461,-0.7464,-0.4854,-0.0905,290.75,224.64,51.49,322.8
-0.4,-0.7412,-0.5072,-0.1826,274.85,213.62,55.34,320.55
-0.3235,-0.7713,-0.5182,-0.1785,284.73,203.37,59.73,323.17
-0.1887,-0.8293,-0.4774,-0.2208,293.76,187.0,57.77,322.98
-0.1115,-0.8454,-0.4182,-0.3131,282.98,174.62,54.52,322.78
-0.1289,-0.8534,-0.3295,-0.3827,264.85,177.26,43.43,319.88
-0.1024,-0.8109,-0.3812,-0.432,257.72,164.92,57.6,321.16
-0.0016,-0.8276,-0.3821,-0.4111,274.04,154.8,59.62,320.41
0.0648,-0.8626,-0.352,-0.3574,290.36,153.73,52.77,321.85
0.0664,-0.8456,-0.4081,-0.3378,297.72,153.05,59.16,320.97
0.0752,-0.8286,-0.4201,-0.3624,294.98,149.41,62.88,320.49
0.1134,-0.8169,-0.4069,-0.3926,293.37,142.83,64.45,322.01
0.1711,-0.7693,-0.4106,-0.4586,291.19,129.14,72.93,320.02
0.1991,-0.7182,-0.422,-0.5162,290.02,118.24,82.23,319.77
0.2213,-0.6894,-0.4453,-0.5267,296.12,114.16,86.72,320.6
0.2219,-0.6614,-0.5147,-0.4984,308.95,116.65,91.69,321.1
0.2235,-0.6496,-0.578,-0.4403,323.44,122.65,93.38,320.02
0.19,-0.6212,-0.6936,-0.3113,345.85,137.7,99.04,321.28
0.068,-0.5457,-0.8055,-0.2208,344.9,154.3,113.5,320.6
-0.0947,-0.4861,-0.8512,-0.1737,321.46,167.54,122.66,320.48
-0.1108,-0.4575,-0.851,-0.233,312.61,161.19,127.45,322.66
-0.0937,-0.3318,-0.9167,-0.202,324.38,161.12,143.19,320.7
-0.1903,-0.2415,-0.9474,-0.0885,312.44,175.25,152.4,322.11
-0.2053,-0.2417,-0.9445,-0.0856,309.18,176.04,152.19,321.28
-0.1545,-0.1796,-0.9698,-0.0588,322.57,176.45,159.6,323.54
-0.1916,-0.1131,-0.9731,0.0601,317.88,189.9,164.89,322.8
-0.1649,-0.1179,-0.9786,0.036,323.38,186.61,165.19,322.8
-0.1485,-0.0604,-0.9837,-0.0812,324.86,171.44,174.3,322.99
-0.1614,-0.0056,-0.9653,-0.2053,323.42,155.44,183.35,324.61
-0.2236,0.0043,-0.9479,-0.227,310.09,151.53,186.94,322.11
-0.3194,0.0139,-0.918,-0.2347,289.11,147.32,192.43,324.64
-0.3661,-0.0304,-0.9027,-0.2241,275.17,148.82,188.51,324.55
-0.4886,-0.0461,-0.8527,-0.1787,243.61,150.48,190.5,322.76
-0.7206,-0.0442,-0.6771,-0.1427,197.47,58.55,286.22,325.32
-0.9323,-0.0148,-0.3201,-0.1675,286.0,5.72,337.72,319.98
-0.9757,-0.1282,-0.0536,-0.1693,342.97,346.43,341.33,320.55
-0.8747,0.1263,0.4344,0.1733,91.5,32.17,36.28,318.7
-0.7613,0.1516,0.5954,0.2071,115.09,62.84,67.52,321.06
-0.6927,0.1708,0.6652,0.2202,115.62,83.89,88.06,320.08
-0.5742,0.2593,0.7126,0.3087,82.32,101.5,105.89,318.92
-0.4073,0.4192,0.7049,0.4019,27.45,110.81,109.03,318.29
-0.2317,0.5126,0.7433,0.3621,356.92,129.1,111.55,319.85
-0.1734,0.5942,0.7078,0.3405,341.68,135.82,103.7,319.57
-0.1078,0.6454,0.6688,0.3529,323.71,139.97,98.7,318.22
0.0446,0.7005,0.6627,0.261,309.74,161.75,90.93,316.81
0.1963,0.721,0.6366,0.1908,296.66,182.71,82.11,316.18
0.2729,0.7033,0.6521,0.0751,305.03,198.8,81.04,319.46
0.2286,0.6583,0.7172,-0.0041,322.38,198.91,91.74,315.2
0.0454,0.5907,0.7996,0.0983,338.24,173.95,107.67,313.3
-0.1068,0.488,0.854,0.1458,4.59,159.3,120.09,316.5
-0.346,0.3723,0.8552,0.1016,62.14,149.76,124.36,316.06
-0.5301,0.2406,0.8022,0.1322,103.8,130.77,121.47,317.24
-0.6598,0.1839,0.7208,0.1059,131.64,105.11,98.64,317.88
-0.7318,0.1204,0.6706,0.0155,155.8,70.02,61.46,319.25
-0.798,-0.1031,0.5875,-0.0861,133.82,317.34,318.75,318.4
-0.855,-0.3054,0.4051,-0.1075,77.68,308.53,326.38,317.4
-0.8966,-0.2751,0.3222,-0.1287,60.93,318.04,331.73,317.16
-0.9345,-0.2112,0.2533,-0.134,49.27,329.4,336.85,318.04
-0.9886,-0.1147,0.0923,-0.0307,20.22,346.35,355.23,318.5
-0.9861,0.0712,-0.0599,0.1378,344.17,7.18,15.42,319.92
-0.9543,0.1861,-0.1021,0.2102,328.29,18.95,22.18,323.97
-0.8796,0.29,-0.1571,0.3428,303.27,27.22,35.58,324.3
-0.848,0.4181,-0.1919,0.2631,293.9,46.52,19.93,323.28
-0.8429,0.432,-0.1886,0.2594,294.36,48.62,19.05,328.43
-0.8022,0.5447,-0.1824,0.1631,303.89,67.33,4.09,326.14
-0.6625,0.7183,-0.2107,-0.0259,332.0,97.15,339.67,327.34
-0.2944,0.8287,-0.3014,-0.3683,51.31,128.03,307.37,328.35
0.0019,0.7486,-0.3581,-0.558,113.61,133.55,282.73,332.81
0.0686,0.7263,-0.4361,-0.5268,111.21,140.43,276.55,329.99
0.251,0.5982,-0.4377,-0.6226,149.41,111.96,233.1,327.01
0.3354,0.5681,-0.381,-0.6477,165.12,60.3,179.28,328.68
0.2481,0.6229,-0.3677,-0.6444,160.28,105.7,233.87,334.86
0.2684,0.6246,-0.3346,-0.6526,168.35,92.41,221.86,334.58
0.4208,0.5706,-0.3108,-0.633,159.47,330.88,88.29,333.89
0.5607,0.5073,-0.2089,-0.6201,119.43,322.1,73.46,337.23
0.6876,0.4279,-0.0229,-0.5861,64.44,318.4,68.36,334.01
0.7463,0.3716,0.0562,-0.5493,37.85,319.34,65.64,339.71
0.7346,0.3114,0.0836,-0.5969,28.83,324.86,73.61,340.57
0.7188,0.2411,-0.015,-0.6519,39.26,339.68,80.86,344.37
0.7407,0.2161,-0.2075,-0.6014,69.12,355.09,76.62,342.46
0.7213,0.2533,-0.1804,-0.6189,70.01,350.01,78.11,339.7
0.7665,0.2212,0.0791,-0.5978,16.46,334.02,74.0,342.94
0.7906,0.1457,0.3506,-0.4805,311.05,321.45,71.25,343.01
0.8656,0.0001,0.2342,-0.4426,312.17,346.88,56.95,346.91
0.865,-0.1601,-0.1202,-0.4602,6.96,22.85,56.73,346.34
0.8231,-0.1862,-0.3054,-0.4411,39.57,37.75,63.2,348.02
0.7888,-0.1274,-0.4431,-0.4064,73.1,44.31,69.83,346.44
0.6495,-0.0685,-0.6858,-0.3212,115.73,84.6,106.02,343.97
0.5792,-0.068,-0.775,-0.2436,119.67,114.76,129.54,339.1
0.6207,-0.086,-0.7348,-0.2597,120.32,100.96,115.57,334.02
0.6527,-0.1189,-0.7011,-0.2614,117.08,91.24,103.26,336.97
0.7603,-0.1185,-0.5812,-0.2648,110.36,58.74,71.18,338.09
0.917,-0.0954,-0.3134,-0.2275,64.2,22.02,34.28,336.23
0.9679,-0.2118,0.0236,-0.1333,348.26,23.94,14.44,342.31
0.93,-0.2665,0.2419,0.0742,311.55,35.66,342.97,342.29
0.9315,0.068,0.3298,0.1377,281.43,357.34,344.13,349.85
0.8294,0.4216,0.3604,0.0659,278.39,300.54,14.9,339.26
0.7927,0.5528,0.2416,0.0874,302.68,288.07,8.42,336.52
0.727,0.5435,0.0213,0.419,301.78,297.86,317.87,334.01
0.4592,0.3963,-0.2297,0.7611,313.82,309.12,253.32,334.06
-0.0359,0.1058,-0.3197,0.9409,334.36,322.47,180.01,335.21
-0.5142,-0.2143,-0.3268,0.7635,358.98,314.0,112.29,337.65
-0.7034,-0.1158,-0.5527,0.4316,274.68,299.51,88.72,336.76
-0.7939,0.0206,-0.6042,0.0647,211.66,350.39,16.59,341.13
-0.8797,0.0514,-0.4727,0.0078,247.3,8.62,356.39,348.23
-0.9514,-0.0209,-0.3068,-0.016,288.47,357.89,358.76,352.79
-0.981,-0.1366,-0.1358,-0.0226,328.36,344.2,359.57,350.73
-0.9517,-0.2971,-0.0508,0.0582,352.88,325.08,8.12,347.51
-0.8755,-0.4672,-0.0541,0.1105,0.98,303.89,14.13,342.87
-0.8023,-0.5774,-0.1363,0.0657,343.58,287.41,15.39,341.57
-0.7824,-0.5985,-0.0846,0.1496,5.34,285.63,19.62,332.02
-0.8086,-0.5041,0.093,0.2888,52.41,301.93,24.58,335.96
-0.7195,-0.4074,0.2605,0.4985,102.7,328.48,53.98,335.11
-0.5069,-0.397,0.412,0.6448,136.75,20.45,117.62,328.39
-0.3618,-0.5541,0.4087,0.6285,165.75,65.35,179.18,328.09
-0.2234,-0.6081,0.4591,0.6079,141.63,119.34,240.74,322.46
-0.1949,-0.5556,0.5998,0.5418,113.41,127.87,236.04,327.12
-0.2968,-0.4691,0.6842,0.473,116.41,135.59,223.27,317.54
-0.3484,-0.395,0.7045,0.4757,120.14,127.65,206.82,318.13
-0.4265,-0.4031,0.6378,0.4988,142.24,115.36,195.91,318.44
-0.4075,-0.4688,0.5702,0.5377,151.29,111.21,202.87,318.33
-0.379,-0.4956,0.5085,0.5934,153.64,92.11,193.75,323.63
-0.2927,-0.4844,0.4598,0.6843,137.54,72.67,187.12,321.46
-0.196,-0.5107,0.3184,0.7742,132.58,46.75,183.12,322.09
-0.1494,-0.5031,0.215,0.8236,126.5,26.93,176.21,320.68
-0.1925,-0.4617,0.0661,0.8634,110.7,353.57,151.49,322.59
-0.3719,-0.3505,-0.0364,0.8588,70.19,336.73,125.71,322.13
-0.4422,-0.2872,-0.0525,0.8481,52.29,337.53,119.64,327.9
-0.3975,-0.2605,-0.0478,0.8785,49.64,341.29,127.15,326.69
-0.4344,-0.2238,-0.1055,0.8661,34.45,336.74,123.16,322.16
-0.4983,-0.2129,-0.1201,0.8318,27.12,334.92,115.12,329.12
-0.4496,-0.2137,-0.0761,0.8639,35.02,340.16,121.92,327.8
-0.308,-0.2431,-0.0266,0.9194,51.02,347.29,140.07,332.83
-0.1559,-0.2837,0.1193,0.9386,69.46,9.49,164.11,328.51
0.0162,-0.3673,0.2562,0.894,80.84,38.11,196.57,320.83
0.0806,-0.5081,0.4196,0.7479,87.62,79.49,229.28,318.31
-0.0076,-0.5331,0.604,0.5924,79.7,112.84,235.8,323.2
-0.0259,-0.4045,0.7282,0.5526,58.01,116.32,219.86,322.07
-0.1503,-0.2214,0.9105,0.3152,48.83,146.13,199.8,318.06
-0.2479,-0.0761,0.8154,0.5174,57.78,112.96,171.3,318.18
-0.2243,0.3731,0.4005,0.8062,310.08,63.77,133.22,317.68
-0.2444,0.6054,0.013,0.7573,228.8,49.81,110.91,328.64
-0.2062,0.5332,0.1679,0.8031,256.15,52.54,124.18,334.58
-0.3217,0.5286,0.1667,0.7677,270.47,57.1,109.26,330.8
-0.4857,0.5328,0.1317,0.6803,286.67,60.29,87.17,332.78
-0.6097,0.3822,0.2375,0.6525,335.85,52.52,87.91,332.95
-0.6144,0.207,0.3586,0.6716,18.71,48.25,99.3,326.57
-0.6798,0.1426,0.3207,0.6439,29.24,38.85,92.07,327.8
-0.6621,0.1734,0.3018,0.6637,19.51,39.75,93.67,323.6
-0.6603,0.2532,0.3438,0.6179,16.22,50.07,89.99,323.4
-0.6863,0.235,0.3122,0.6134,16.13,45.44,86.96,323.5
-0.6581,0.1804,0.3488,0.6424,26.29,44.75,94.05,328.71
-0.5887,0.0979,0.4502,0.6643,47.14,51.1,108.3,322.32
-0.5773,0.0526,0.3972,0.7115,45.13,42.67,110.8,321.87
-0.5377,0.0126,0.3456,0.7689,41.26,35.62,116.76,323.62
-0.4852,0.0333,0.3084,0.8175,28.34,33.6,122.92,322.56
-0.4774,0.1272,0.2136,0.8428,358.79,28.78,120.79,321.59
-0.4508,0.1472,0.1784,0.8621,349.32,26.25,123.54,322.96
-0.3961,0.1624,0.2096,0.8791,346.28,30.05,129.64,327.08
-0.3637,0.1876,0.1589,0.8985,334.4,25.64,133.0,324.78
-0.328,0.1843,0.0546,0.9249,324.46,13.47,138.84,323.7
-0.3633,0.1671,-0.105,0.9105,315.26,355.67,137.36,327.19
-0.4143,0.1391,-0.1858,0.88,312.99,346.64,132.37,328.82
-0.3386,0.1158,-0.1558,0.9207,322.82,347.3,141.7,334.23
-0.1835,0.1364,-0.0236,0.9732,328.18,0.25,158.61,333.61
-0.116,0.17,0.0158,0.9785,321.58,4.27,165.75,334.52
-0.0964,0.185,0.0391,0.9772,318.53,6.88,167.48,329.04
0.0504,0.176,0.2173,0.9588,317.88,25.31,181.24,331.78
0.1845,0.168,0.3403,0.9066,309.03,37.94,194.12,324.33
0.2647,0.136,0.4286,0.8531,305.37,47.9,202.15,324.9
0.3472,0.1896,0.7183,0.5723,268.57,98.54,190.32,324.16
0.2813,0.231,0.9182,0.1559,287.87,168.85,155.4,318.22
0.1304,0.3489,0.9219,-0.1068,340.91,196.98,137.12,319.75
-0.0276,0.4098,0.872,-0.2663,30.9,207.28,133.42,311.26
-0.1091,0.3544,0.7937,-0.4822,61.99,233.39,147.75,312.91
-0.0679,0.3201,0.7397,-0.5881,56.98,250.1,153.39,311.84
0.0044,0.2252,0.7429,-0.6304,32.22,257.67,159.27,309.45
0.0558,0.1547,0.787,-0.5947,11.03,253.27,161.86,309.17
0.0008,0.0971,0.7929,-0.6016,13.27,253.86,171.03,308.86
0.0093,0.1594,0.8162,-0.5552,18.63,247.15,164.09,311.48
0.0772,0.2902,0.8004,-0.5188,20.46,242.8,146.39,310.17
0.1344,0.2946,0.8384,-0.4384,3.78,234.57,142.25,309.56
0.1043,0.2512,0.9034,-0.3315,357.49,220.66,148.45,306.05
0.0905,0.3291,0.9224,-0.1806,354.49,203.16,140.16,311.86
0.1738,0.3663,0.9122,-0.0586,328.17,194.1,134.26,310.14
0.2152,0.2899,0.9313,0.0473,309.27,182.33,144.89,310.66
0.2618,0.1744,0.9407,0.1267,295.06,169.97,161.92,313.7
0.2868,0.1018,0.8206,0.4836,290.62,116.56,187.71,314.79
0.3021,-0.0022,0.3878,0.8708,333.36,44.07,212.85,317.87
0.2787,-0.0039,0.1746,0.9444,349.68,19.47,211.99,324.38
0.133,-0.07,0.1124,0.9822,12.36,13.93,196.17,326.41
-0.0356,-0.0867,0.0245,0.9953,20.08,2.48,176.12,329.77
-0.1311,-0.0643,-0.0286,0.9889,13.75,355.75,164.64,330.48
-0.2055,-0.1136,-0.1378,0.9622,18.63,341.57,154.38,334.86
-0.2749,-0.1587,-0.284,0.9047,15.06,322.67,143.65,339.44
-0.1718,-0.1319,-0.2713,0.9378,17.74,325.88,156.51,341.18
-0.0182,-0.0721,-0.1228,0.9896,15.9,345.64,176.89,338.88
0.1114,-0.014,-0.0443,0.9927,4.31,355.13,192.71,335.46
0.2092,0.0535,-0.0727,0.9737,351.55,350.54,204.6,333.1
0.3,0.097,-0.0109,0.9489,339.54,355.4,215.5,332.1
0.3717,0.1481,0.1807,0.8985,312.79,13.55,222.11,331.82
0.3657,0.1124,0.2542,0.8883,314.65,23.6,219.95,329.27
0.3768,0.0982,0.3066,0.8685,312.64,30.05,220.46,328.63
0.3958,0.1536,0.288,0.8584,301.11,25.35,222.74,328.63
0.3988,0.1971,0.2158,0.8692,298.05,14.73,225.18,326.86
0.37,0.1563,0.1196,0.908,316.29,6.28,223.13,326.4
0.2678,0.1046,-0.0138,0.9577,337.75,355.18,211.71,326.31
0.1672,-0.0057,-0.1516,0.9742,7.07,342.9,198.94,332.46
0.1361,-0.1508,-0.1557,0.9667,39.01,343.99,193.26,332.12
0.2395,-0.2263,0.0158,0.944,49.64,8.76,210.41,334.23
0.4753,-0.2766,0.2377,0.8007,25.07,41.25,246.12,334.29
0.7114,-0.3742,0.2815,0.5241,359.06,55.84,286.99,330.26
0.6338,-0.5596,0.3047,0.4385,12.0,79.1,295.6,329.62
0.6022,-0.6458,0.322,0.3414,6.09,92.39,304.08,331.85
0.4114,-0.7963,0.3026,0.3242,31.01,117.93,309.02,336.87
0.2254,-0.8784,0.2905,0.3052,47.82,141.16,314.86,337.87
0.1604,-0.8897,0.3269,0.2755,45.31,149.7,313.44,338.53
-0.0349,-0.8718,0.4426,0.2071,46.15,172.35,304.6,344.37
-0.2466,-0.8242,0.4566,0.2266,73.55,194.43,306.85,344.55
-0.404,-0.7032,0.5624,0.1613,85.88,211.9,295.53,343.52
-0.4042,-0.6424,0.6358,0.1408,88.02,208.23,282.2,347.42
-0.3037,-0.5485,0.7714,0.1087,72.02,191.8,254.67,347.58
-0.1144,-0.5227,0.841,0.0795,32.0,179.15,243.61,345.77
0.0823,-0.423,0.9019,0.0284,345.71,173.0,230.69,342.24
0.2482,-0.2885,0.9232,-0.0544,301.38,177.19,215.45,337.36
0.3491,-0.0515,0.9203,-0.169,277.4,201.48,178.23,338.2
0.3256,0.2983,0.8549,-0.2724,313.58,225.9,131.59,330.15
0.0817,0.6442,0.712,-0.2671,26.33,209.92,99.26,330.05
-0.0252,0.7966,0.5077,-0.3271,66.28,200.41,71.15,330.7
-0.0177,0.8197,0.338,-0.4621,100.62,206.34,57.36,326.09
-0.1642,0.633,0.2272,-0.7216,162.35,308.49,160.71,324.56
-0.1617,0.4534,0.0969,-0.8711,110.42,357.76,199.87,320.59
0.2007,0.2464,-0.1346,-0.9385,62.21,10.34,158.75,317.73
0.4915,-0.0452,-0.406,-0.7691,38.49,45.12,122.89,313.68
0.6944,-0.3007,-0.5823,-0.2971,78.1,79.53,79.21,308.82
0.6498,-0.459,-0.5468,0.2611,143.69,93.55,31.47,307.18
0.3763,-0.559,-0.3288,0.6616,161.63,354.79,234.83,297.78
-0.0233,-0.5118,-0.0045,0.8587,123.01,356.21,174.63,294.78
-0.318,-0.2651,0.2299,0.8807,75.65,17.41,146.3,292.71
-0.5632,-0.1132,0.3318,0.7483,65.78,26.08,113.89,289.65
-0.7469,-0.0686,0.3555,0.5578,74.82,21.73,80.94,281.73
-0.7707,-0.019,0.4557,0.4449,92.01,32.79,74.23,290.77
-0.7613,0.0145,0.5045,0.407,98.3,41.42,75.87,300.07
-0.7463,-0.0361,0.4929,0.4458,100.34,37.02,79.52,294.62
-0.6696,-0.1762,0.4686,0.5487,110.34,29.15,94.14,288.43
-0.4757,-0.4465,0.3212,0.6864,133.43,2.35,112.09,293.7
-0.0443,-0.7245,-0.0111,0.6877,169.15,237.76,55.0,298.41
0.4643,-0.6504,-0.3322,0.501,147.55,103.85,353.21,294.89
0.6833,-0.5023,-0.4842,0.2152,122.78,86.83,23.68,293.96
0.7201,-0.3745,-0.5836,0.025,118.46,85.71,51.64,295.73
0.726,-0.0836,-0.6653,-0.1526,140.28,72.75,78.42,297.0
0.7736,-0.0789,-0.5643,-0.2772,112.07,51.12,67.99,298.51
0.8541,-0.1087,-0.3345,-0.3831,58.43,30.43,56.42,299.52
0.8341,0.006,-0.2387,-0.4973,47.68,14.4,64.66,302.94
0.8305,0.0405,-0.0432,-0.5538,13.41,358.88,67.33,304.24
0.8507,-0.0228,0.2517,-0.461,306.61,347.51,59.88,307.14
0.7414,-0.139,0.5229,-0.3968,235.3,333.24,72.69,310.11
0.7469,-0.2294,0.4979,-0.3764,227.2,355.4,56.5,309.07
0.694,-0.2821,0.5401,-0.3834,209.95,354.99,61.68,310.79
0.6766,-0.3296,0.5173,-0.4073,208.8,5.67,57.69,310.42
0.6636,-0.3421,0.4111,-0.523,230.75,3.22,74.44,313.2
0.6386,-0.2888,0.4194,-0.577,239.35,346.56,92.03,313.22
0.6195,-0.2893,0.49,-0.5408,226.16,334.04,99.56,311.01
0.5726,-0.2602,0.5074,-0.589,234.85,319.39,116.96,313.82
0.5534,-0.2187,0.3675,-0.7147,267.99,335.94,114.83,316.17
0.4723,-0.2364,0.2541,-0.8103,282.92,346.05,124.43,311.59
0.389,-0.2208,0.1913,-0.8737,295.35,348.91,135.22,311.3
0.2857,-0.1616,0.1857,-0.9262,312.17,344.02,149.12,314.31
0.1776,-0.1753,0.2845,-0.9256,309.63,329.12,165.34,315.5
0.1587,-0.2483,0.3371,-0.8941,293.11,321.1,171.98,315.17
0.1164,-0.2942,0.2673,-0.9102,286.58,328.56,176.1,319.29
-0.0264,-0.2997,0.1599,-0.9402,292.58,337.64,190.07,314.84
-0.1124,-0.2884,0.103,-0.9453,297.05,342.28,198.59,318.81
-0.1826,-0.313,-0.0047,-0.932,288.37,352.52,204.6,316.27
-0.265,-0.2432,-0.0168,-0.9329,304.87,353.68,213.26,317.1
-0.229,-0.2859,-0.0409,-0.9296,293.23,356.23,208.81,317.35
-0.2081,-0.3708,-0.1058,-0.8989,269.43,2.92,204.85,318.08
-0.239,-0.3365,-0.0614,-0.9088,280.28,356.33,210.79,315.81
-0.2576,-0.3037,0.0453,-0.9162,295.57,343.56,216.19,316.27
-0.2761,-0.3371,0.0453,-0.8989,288.94,340.8,220.36,317.0
-0.3261,-0.3399,0.042,-0.8811,290.28,338.88,227.32,314.84
-0.3509,-0.2873,0.1184,-0.8833,309.78,333.02,229.45,316.65
-0.3675,-0.2491,0.1293,-0.8867,319.44,333.92,229.77,319.42
-0.3959,-0.2338,0.1141,-0.8807,322.49,335.93,232.45,317.56
-0.4031,-0.2526,0.0901,-0.875,316.65,337.12,233.91,320.43
-0.3261,-0.298,0.0163,-0.897,296.8,344.78,224.29,317.98
-0.254,-0.2628,-0.1222,-0.9228,293.66,6.31,208.89,319.1
-0.1908,-0.2146,-0.1317,-0.9488,305.55,10.89,200.1,318.77
-0.1304,-0.0581,0.007,-0.9897,346.99,358.32,195.1,317.34
-0.0582,0.0796,0.0807,-0.9918,19.27,351.2,185.97,318.42
-0.0505,0.1379,0.0998,-0.9841,32.7,349.03,184.3,317.8
-0.0915,0.2196,0.0862,-0.9675,52.29,351.9,188.92,317.79
-0.119,0.2686,0.117,-0.9487,65.02,349.19,191.14,318.7
-0.1505,0.2265,0.1289,-0.9536,56.17,348.38,195.01,320.95
-0.091,0.1651,0.1427,-0.9717,40.58,344.71,187.95,321.67
0.0169,0.0434,0.2258,-0.9731,8.82,333.76,176.98,319.61
-0.0234,-0.0587,0.4106,-0.9096,349.94,311.18,185.23,319.42
-0.053,-0.0811,0.5543,-0.8267,351.36,291.93,190.26,321.16
-0.0313,-0.0837,0.5874,-0.8044,348.77,287.3,188.59,326.94
-0.0327,-0.0855,0.6085,-0.7883,349.1,284.24,189.0,324.74
-0.0444,-0.0756,0.6677,-0.7393,353.97,275.57,189.6,324.11
-0.0421,-0.06,0.6764,-0.7328,356.46,274.46,188.22,323.8
-0.0622,-0.0125,0.6606,-0.748,7.28,277.3,186.3,326.44
-0.0764,-0.0126,0.587,-0.8059,7.97,288.14,187.95,324.38
-0.0726,-0.0579,0.5627,-0.8214,358.46,291.1,190.63,323.03
-0.1423,-0.1463,0.6567,-0.726,357.07,275.43,203.51,326.04
-0.2609,-0.2241,0.715,-0.6086,11.52,262.9,219.9,325.12
-0.4646,-0.4286,0.6167,-0.4692,19.68,262.54,258.24,328.15
-0.6042,-0.6251,0.3813,-0.3143,7.79,265.84,300.85,327.68
-0.6582,-0.7292,0.1728,-0.0723,14.02,262.88,339.53,330.99
-0.7557,-0.6341,-0.0173,0.1633,20.84,281.46,15.86,331.7
-0.6953,-0.5801,-0.2673,0.3295,1.21,280.61,50.2,335.33
-0.5841,-0.5403,-0.3398,0.5014,16.65,280.78,74.39,339.3
-0.6305,-0.4395,-0.375,0.5183,358.02,289.42,79.54,338.7
-0.6965,-0.3519,-0.4422,0.4422,324.51,292.29,76.78,339.08
-0.7522,-0.2315,-0.4888,0.3763,291.73,300.08,73.23,340.19
-0.7743,-0.1398,-0.5164,0.3382,270.33,307.09,70.39,339.19
-0.7933,-0.0615,-0.497,0.3464,263.54,318.45,66.46,345.46
-0.9206,0.0586,-0.245,0.2983,301.84,357.5,36.55,342.58
-0.9329,0.3212,0.1131,0.1165,15.65,39.16,17.02,343.87
-0.4735,0.7399,0.4684,0.094,35.45,124.08,55.2,342.68
-0.1726,0.8037,0.4422,0.3588,309.81,138.94,67.16,350.34
-0.0743,0.7176,0.4772,0.5017,279.03,129.67,86.91,358.83
-0.1515,0.7347,0.5777,0.3219,325.34,141.49,82.45,2.64
-0.2339,0.809,0.5391,0.0152,26.31,156.08,64.56,359.15
-0.2303,0.849,0.422,-0.2193,69.04,165.52,48.34,353.59
-0.0439,0.8743,0.4261,-0.2283,51.78,187.52,53.69,354.23
0.2374,0.8047,0.4518,-0.3032,31.74,223.0,64.91,355.7
0.3645,0.6588,0.4457,-0.4842,36.5,253.77,81.9,358.91
0.3994,0.6135,0.3872,-0.5605,44.47,266.75,85.55,358.04
0.4263,0.5904,0.296,-0.6181,57.04,278.35,86.04,355.08
0.4507,0.5971,0.2476,-0.6156,61.59,281.02,82.01,356.53
0.4957,0.6154,0.2507,-0.5593,52.18,277.48,73.92,359.15
0.4755,0.7012,0.1826,-0.4988,63.46,266.62,59.18,358.24
0.3557,0.8285,0.1118,-0.4178,75.57,239.77,37.63,357.89
0.0802,0.9241,-0.0007,-0.3735,87.34,191.78,4.65,356.82
-0.1649,0.9295,0.026,-0.3289,76.62,158.35,355.61,348.69
-0.129,0.9298,0.0513,-0.3409,80.66,164.4,0.55,348.03
-0.0528,0.8219,0.1725,-0.5403,130.01,193.63,32.41,343.41
-0.0195,0.5414,0.3576,-0.7607,113.77,286.82,139.13,345.34
0.0226,0.3084,0.5779,-0.7553,52.17,279.09,154.22,348.01
0.1084,0.1518,0.721,-0.6674,5.31,265.08,158.66,347.37
0.2057,-0.0512,0.7959,-0.5672,314.65,252.85,170.53,349.99
0.2558,-0.146,0.8585,-0.4197,291.65,231.34,182.49,349.27
0.1445,-0.1816,0.9643,-0.1279,322.06,191.85,199.34,354.49
0.0605,-0.259,0.9548,0.1331,354.65,163.39,210.74,5.02
-0.0579,-0.3572,0.882,0.3019,37.05,148.8,218.87,10.11
-0.1543,-0.3663,0.81,0.4312,68.93,134.76,213.94,24.7
-0.099,-0.4087,0.7705,0.479,65.93,128.43,219.62,22.66
-0.013,-0.4231,0.7395,0.5234,55.03,120.62,223.65,23.84
0.1264,-0.4597,0.631,0.612,47.56,103.84,233.41,28.79
0.2952,-0.4812,0.4791,0.6722,42.7,85.2,247.08,23.34
0.393,-0.4849,0.3509,0.6981,47.32,71.97,256.05,25.69
0.3548,-0.5104,0.2194,0.752,75.46,61.06,253.3,17.01
0.3606,-0.4382,0.1933,0.8003,68.39,49.14,244.52,30.26
0.3254,-0.4305,0.2656,0.7989,61.99,55.27,240.84,29.32
0.2919,-0.49,0.3458,0.7451,63.78,70.7,245.7,21.29
0.3011,-0.5564,0.4259,0.6468,55.2,88.83,256.98,29.05
0.3212,-0.5677,0.433,0.6221,50.7,91.25,260.51,21.47
0.3723,-0.6241,0.4259,0.539,41.67,98.73,273.45,17.1
0.3821,-0.6995,0.3961,0.4559,39.15,108.07,286.69,18.84
0.2031,-0.7828,0.4785,0.3422,39.91,136.64,289.13,22.15
0.0397,-0.8007,0.5349,0.2667,45.24,157.8,288.02,16.54
-0.0661,-0.8297,0.5391,0.1286,33.09,178.27,293.72,20.67
-0.1062,-0.869,0.4832,-0.0092,9.94,191.2,302.33,22.06
-0.1539,-0.849,0.5043,-0.0343,11.14,197.3,299.42,11.49
-0.1761,-0.8546,0.4845,-0.0624,7.34,201.23,301.58,16.78
-0.2502,-0.8592,0.4188,-0.1543,353.63,214.06,307.05,18.01
-0.2653,-0.8543,0.3884,-0.221,340.25,219.37,307.56,17.07
-0.3168,-0.8497,0.3438,-0.2439,337.31,226.06,311.11,14.24
-0.3099,-0.8645,0.3026,-0.2549,330.68,225.51,315.24,13.56
-0.3071,-0.8475,0.3249,-0.286,326.84,227.48,310.72,13.93
-0.2904,-0.8407,0.329,-0.3172,319.97,227.89,308.29,20.84
-0.2934,-0.8348,0.3781,-0.2721,333.11,225.66,305.59,14.69
-0.2998,-0.8244,0.3716,-0.3041,327.65,228.58,304.13,18.18
-0.2622,-0.8269,0.3233,-0.3782,305.76,229.63,304.57,22.99
-0.1572,-0.8635,0.299,-0.3745,292.89,216.48,310.45,15.67
-0.0881,-0.8591,0.3331,-0.3784,287.48,210.02,307.57,9.92
-0.0633,-0.8393,0.2445,-0.4814,258.0,212.88,311.49,12.39
0.0944,-0.799,0.0932,-0.5865,214.56,171.94,352.63,10.3
0.2989,-0.7121,-0.001,-0.6352,230.58,91.91,63.15,6.2
0.3491,-0.6844,-0.0228,-0.6397,241.44,83.0,69.31,358.34
0.2797,-0.6962,-0.0055,-0.6611,226.89,85.58,71.58,2.34
0.2262,-0.6421,-0.044,-0.7312,226.41,64.2,100.68,1.25
0.1619,-0.6062,-0.1093,-0.7709,231.87,56.54,119.08,0.0
0.2039,-0.6542,-0.016,-0.7282,217.77,63.66,100.86,3.34
0.2386,-0.6708,-0.0347,-0.7014,224.86,75.15,87.94,2.84
0.2019,-0.5921,-0.1506,-0.7655,244.52,61.64,114.03,5.12
0.1795,-0.4663,-0.1177,-0.8582,261.41,34.51,140.15,358.04
0.1566,-0.3452,-0.0247,-0.925,281.77,11.44,156.7,0.37
0.1938,-0.281,0.0902,-0.9356,291.78,355.86,157.86,359.26
0.1517,-0.2323,0.1144,-0.9539,302.91,350.32,164.4,358.22
0.134,-0.1474,0.2257,-0.9536,320.04,335.42,168.39,4.63
0.0997,-0.0442,0.2985,-0.9482,343.51,325.74,170.54,4.45
0.0952,0.0766,0.3705,-0.9207,8.1,315.68,166.55,3.56
0.1129,0.2347,0.4534,-0.8524,34.64,300.1,154.87,6.67
0.0058,0.3786,0.5043,-0.7761,71.15,284.58,151.29,11.08
-0.0774,0.4966,0.5008,-0.7047,102.04,270.47,141.87,9.42
-0.1876,0.5711,0.4084,-0.6869,139.37,272.33,143.03,6.08
-0.3505,0.4299,0.2912,-0.7794,121.93,341.67,217.57,4.88
-0.3979,0.2295,0.1131,-0.881,59.27,358.9,228.32,3.61
-0.3876,0.1359,0.0747,-0.9087,35.5,358.17,225.92,358.1
-0.5729,-0.0201,-0.0561,-0.8175,348.86,3.96,249.86,358.58
-0.5964,-0.1558,-0.1915,-0.7638,304.39,6.93,254.25,354.91
-0.6144,-0.1955,-0.3367,-0.6863,274.0,17.67,256.66,350.82
-0.5406,-0.1577,-0.4712,-0.6789,267.31,42.83,238.0,349.02
-0.4244,-0.1247,-0.5048,-0.7413,284.34,54.45,219.59,347.31
-0.4048,-0.0793,-0.651,-0.6373,282.19,79.64,212.02,348.34
-0.5723,-0.1118,-0.6823,-0.4409,236.82,84.71,227.73,343.72
-0.623,-0.272,-0.6415,-0.3555,193.86,76.04,231.17,344.05
-0.6864,-0.3718,-0.5694,-0.2577,206.53,289.08,17.67,343.91
-0.7985,-0.2954,-0.4362,-0.2912,239.37,333.92,335.25,340.33
-0.8664,-0.1563,-0.4024,-0.251,258.26,353.74,330.67,340.21
-0.9142,-0.1075,-0.3519,-0.1699,274.33,353.97,341.31,342.61
-0.9595,-0.0372,-0.2347,-0.151,305.02,359.97,342.12,340.16
-0.9639,-0.1682,-0.1821,-0.0973,314.87,341.77,352.14,343.71
-0.9369,-0.317,-0.1401,-0.0463,326.05,322.59,0.12,342.29
-0.9473,-0.3107,-0.0739,-0.0241,342.17,323.69,0.01,339.87
-0.9398,-0.3319,-0.0641,0.0506,350.03,320.75,7.94,339.17
-0.9033,-0.4027,-0.1186,0.0887,343.57,310.86,14.98,337.43
-0.8524,-0.486,-0.1931,-0.0014,321.4,298.69,11.33,338.51
-0.7191,-0.4909,-0.4048,-0.2793,242.16,291.64,359.52,336.35
-0.7588,-0.1296,-0.5387,-0.3423,229.99,24.04,295.98,339.6
-0.7404,-0.1063,-0.5705,-0.3392,227.06,35.12,287.34,342.59
-0.6976,-0.222,-0.5778,-0.3608,209.8,24.65,286.23,343.21
-0.6682,-0.1805,-0.57,-0.4428,225.69,42.77,263.79,342.18
-0.6785,-0.0846,-0.5443,-0.486,249.66,46.49,263.48,343.89
-0.7646,-0.1369,-0.3985,-0.4878,264.04,15.55,287.98,341.64
-0.7494,-0.2678,-0.3957,-0.4583,246.03,355.93,299.32,342.18
-0.5733,-0.4359,-0.6125,-0.3259,198.94,217.68,76.88,338.65
-0.5613,-0.3763,-0.6277,-0.3865,190.89,138.57,156.07,334.66
-0.58,-0.2036,-0.4827,-0.6238,251.03,39.05,245.14,340.97
-0.5129,-0.0379,-0.2036,-0.8331,328.43,18.19,240.7,340.57
-0.4947,0.0866,-0.1168,-0.8568,3.77,16.61,240.28,344.57
-0.5346,-0.0397,-0.1771,-0.8254,330.46,14.98,243.91,349.54
-0.5121,-0.2461,-0.3515,-0.7441,266.86,23.22,238.97,345.6
-0.5203,-0.4302,-0.4795,-0.5607,202.19,27.9,242.61,342.42
-0.4607,-0.4538,-0.5273,-0.5512,199.14,78.86,190.17,337.08
-0.4389,-0.3888,-0.5027,-0.6352,221.48,57.13,208.08,338.33
-0.4481,-0.1517,-0.3358,-0.8145,293.54,29.43,228.67,335.24
-0.5365,-0.2044,0.0097,-0.8187,322.16,345.61,248.89,341.94
-0.5126,-0.2551,0.4747,-0.6684,16.76,295.07,249.64,347.39
-0.1174,0.0773,0.8225,-0.5511,32.32,247.66,180.13,346.98
-0.1135,0.1397,0.7487,-0.6381,40.76,260.17,176.06,353.2
-0.2418,0.2304,0.5057,-0.7954,75.35,298.89,191.05,351.91
-0.2836,0.3186,0.3446,-0.8363,93.49,324.74,201.83,350.17
-0.2125,0.4166,0.4022,-0.7871,111.52,305.84,179.94,346.88
0.0363,0.5882,0.4303,-0.6837,101.27,264.36,118.78,350.17
0.2836,0.8001,0.379,-0.3685,44.0,232.26,61.59,351.36
0.5173,0.7603,0.3594,-0.1584,344.95,245.28,45.77,354.12
0.6052,0.7052,0.3651,-0.0555,317.35,253.71,38.67,358.96
0.6166,0.6889,0.3689,0.095,288.26,254.14,28.86,358.19
0.6193,0.64,0.3981,0.2199,258.47,257.57,22.02,0.97
0.5986,0.6099,0.3753,0.3589,234.97,266.8,3.5,0.93
0.541,0.5954,0.3844,0.4528,214.47,269.12,353.76,2.54
0.5246,0.464,0.3943,0.5951,210.04,356.11,265.77,1.66
0.4827,0.2561,0.4093,0.7307,259.41,33.32,230.9,1.97
0.4423,0.2101,0.5403,0.6843,260.09,59.37,216.01,3.22
0.3666,0.2218,0.7997,0.4206,258.77,126.5,175.8,2.88
0.0214,0.1965,0.9737,0.1135,350.1,167.67,157.72,359.17
0.1168,0.184,0.9671,-0.1312,339.54,197.55,156.87,355.28
0.0524,0.2545,0.9047,-0.3375,8.84,219.74,150.18,351.9
-0.07,0.3526,0.7551,-0.5483,59.0,243.46,148.43,350.09
-0.0768,0.3811,0.5672,-0.7261,79.67,274.95,155.32,348.28
-0.1328,0.6126,0.4684,-0.6227,125.07,245.78,117.68,343.64
-0.0292,0.7352,0.3464,-0.582,122.32,228.31,80.14,343.87
0.066,0.6375,0.2318,-0.7318,128.95,280.66,114.47,345.6
0.0072,0.6233,0.1038,-0.775,149.44,319.87,147.78,344.68
-0.0986,0.6193,0.0989,-0.7727,155.1,351.81,187.96,342.7
-0.2764,0.4895,0.2155,-0.7985,128.52,350.24,212.04,341.03
-0.3451,0.3431,0.3412,-0.8042,103.88,329.6,211.37,340.79
-0.3917,0.1743,0.3807,-0.8193,71.46,323.12,218.84,342.71
-0.57,-0.0373,0.2267,-0.7888,23.03,335.9,249.24,342.78
-0.5492,-0.1332,0.1377,-0.8134,352.5,338.21,248.78,341.57
-0.4458,0.0037,0.2007,-0.8723,21.38,339.33,232.19,340.14
-0.6004,-0.0702,0.3066,-0.7352,30.73,326.28,253.79,340.8
-0.5678,0.1525,0.2127,-0.7805,57.31,349.57,249.4,343.37
-0.5301,0.2168,-0.1085,-0.8125,27.44,24.71,249.26,343.0
-0.5126,-0.0033,-0.3078,-0.8016,322.58,31.16,239.93,341.68
-0.4928,0.0203,-0.5369,-0.6845,299.82,60.76,233.59,335.91
-0.4249,0.0944,-0.6473,-0.6257,308.81,80.81,226.48,336.54
-0.3588,0.0795,-0.7173,-0.592,310.25,92.63,216.44,338.45
-0.2433,-0.037,-0.8127,-0.5281,308.48,111.07,192.62,337.83
-0.0258,0.0041,-0.8774,-0.4791,355.26,122.69,181.83,334.8
0.2615,0.1144,-0.7766,-0.5615,64.66,105.97,172.11,334.85
0.3945,0.146,-0.6568,-0.6259,89.0,82.37,154.95,335.84
0.3459,-0.0186,-0.6101,-0.7125,46.61,73.89,145.84,336.28
0.354,-0.2764,-0.5146,-0.7304,355.49,71.46,126.66,337.56
0.3921,-0.2002,-0.6399,-0.6298,28.92,84.03,129.23,336.64
0.4262,-0.1319,-0.7635,-0.4669,63.69,103.67,135.12,335.92
0.4311,-0.1865,-0.8077,-0.3562,68.62,116.96,132.56,333.14
0.4364,-0.1714,-0.8456,-0.2552,81.16,130.07,137.54,332.09
0.4645,-0.1717,-0.8369,-0.2334,88.41,129.88,135.3,332.03
0.4309,-0.1995,-0.8595,-0.1891,83.41,138.27,137.35,331.7
0.4128,-0.1959,-0.8763,-0.1529,83.14,144.95,141.13,332.91
0.3812,-0.2247,-0.8842,-0.1498,74.71,146.72,139.95,330.73
0.3586,-0.2092,-0.8999,-0.1334,72.26,151.11,144.22,331.63
0.3228,-0.2277,-0.9085,-0.1361,63.26,152.41,143.9,330.3
0.2415,-0.2833,-0.9084,-0.1903,38.65,149.24,139.99,331.36
0.1995,-0.2956,-0.8868,-0.2939,20.76,139.47,139.29,331.63
0.174,-0.3246,-0.8493,-0.3783,5.73,130.85,136.85,330.64
0.1731,-0.3314,-0.8059,-0.4592,357.09,121.24,136.11,330.95
0.192,-0.3157,-0.7865,-0.4948,358.82,115.89,136.63,332.87
0.2543,-0.2703,-0.8108,-0.4527,19.3,117.87,137.31,332.05
0.294,-0.2281,-0.8742,-0.312,43.64,132.94,141.16,331.18
0.3152,-0.1894,-0.908,-0.2006,59.53,146.14,147.19,331.43
0.3195,-0.1769,-0.9089,-0.2016,61.24,146.14,148.44,330.49
0.2548,-0.2386,-0.9015,-0.2559,39.42,141.74,143.45,330.04
0.2048,-0.2812,-0.8795,-0.3248,20.46,135.77,140.37,330.76
0.2118,-0.2777,-0.8648,-0.3606,19.12,131.25,140.05,330.54
0.2076,-0.2872,-0.8803,-0.3155,21.24,136.65,139.62,330.36
0.1209,-0.3395,-0.8763,-0.3198,359.4,140.01,137.75,330.19
0.0526,-0.3766,-0.8533,-0.3569,339.36,138.76,136.26,330.34
0.0477,-0.3967,-0.8502,-0.3429,337.99,140.76,133.91,330.61
0.0601,-0.4152,-0.85,-0.3187,341.3,143.16,131.05,329.07
0.0321,-0.4323,-0.8457,-0.3113,335.18,145.42,129.72,330.81
0.027,-0.4325,-0.838,-0.3316,332.05,143.36,130.06,327.62
-0.0517,-0.4799,-0.8142,-0.3226,313.62,148.83,125.53,328.43
-0.2622,-0.6186,-0.6384,-0.3754,253.87,165.06,99.29,329.77
-0.4428,-0.5725,-0.4147,-0.5515,185.7,270.59,344.1,328.19
-0.591,-0.4154,-0.211,-0.6585,254.41,339.36,274.15,329.14
-0.6897,-0.2071,-0.083,-0.6888,312.87,349.23,272.33,331.41
-0.7503,-0.0805,-0.0199,-0.6559,344.43,354.51,278.06,336.14
-0.784,-0.0197,0.0116,-0.6203,359.29,357.4,283.31,336.56
-0.8081,0.0624,0.0216,-0.5853,12.4,4.36,288.4,337.46
-0.8299,0.1005,0.0321,-0.5478,18.81,7.67,293.78,338.05
-0.8372,0.0913,0.0588,-0.536,22.65,5.26,295.27,338.38
-0.8508,0.0738,0.0398,-0.5188,16.59,4.89,297.6,339.09
-0.8888,0.0744,0.0041,-0.4522,8.56,7.41,306.34,339.9
-0.9278,0.1073,-0.1009,-0.3428,346.96,15.67,318.54,339.7
-0.935,0.1318,-0.1815,-0.2748,329.04,21.06,324.34,340.23
-0.9511,0.1409,-0.1532,-0.2281,333.73,20.3,330.67,341.68
-0.9406,0.2453,-0.1549,-0.1761,336.34,31.82,335.41,340.91
-0.9175,0.3508,-0.1703,-0.0784,330.15,43.93,344.18,341.15
-0.8939,0.4224,-0.1493,-0.0123,330.26,51.74,351.18,344.13
-0.8268,0.5138,-0.2268,-0.0296,319.68,66.85,342.52,344.23
-0.6872,0.6694,-0.2747,-0.0645,326.14,92.83,331.5,347.37
-0.6327,0.7416,-0.2207,-0.0323,333.25,101.71,337.76,346.57
-0.6022,0.775,-0.1872,0.0416,326.3,106.47,345.48,348.9
-0.5696,0.8097,-0.1109,0.088,328.8,110.4,355.27,348.15
-0.548,0.8171,-0.0637,0.1672,319.88,111.45,4.83,350.27
-0.5461,0.8112,0.006,0.2091,321.13,109.59,14.62,352.37
-0.635,0.7466,0.0623,0.1884,336.68,97.19,19.83,350.62
-0.7782,0.5839,0.1118,0.2025,352.84,72.92,26.52,354.44
-0.8892,0.3766,0.1851,0.1822,22.14,48.69,28.17,348.13
-0.9195,0.2546,0.2593,0.1501,47.21,36.57,26.44,349.24
-0.9314,0.1101,0.328,0.1131,71.77,20.16,20.43,346.46
-0.9249,-0.1125,0.3575,0.0642,85.02,347.3,2.98,345.7
-0.8867,-0.2848,0.3638,-0.0171,78.91,317.92,342.09,342.91
-0.8371,-0.3636,0.4053,-0.0536,79.51,301.98,330.0,343.19
-0.7805,-0.4349,0.4437,-0.0701,78.33,287.11,320.29,343.64
-0.6962,-0.536,0.4626,-0.1184,62.28,269.83,309.47,340.9
-0.5305,-0.606,0.5602,-0.1936,42.16,247.16,288.58,338.96
-0.4031,-0.5751,0.6429,-0.3055,19.22,240.32,269.22,337.37
-0.2414,-0.5729,0.6514,-0.435,338.81,239.08,256.64,336.52
-0.0285,-0.5458,0.625,-0.5574,290.11,242.62,240.58,334.46
0.125,-0.4392,0.5884,-0.6673,265.67,263.39,210.98,330.78
0.3136,-0.365,0.5423,-0.6888,245.11,285.69,176.15,332.35
0.4709,-0.3669,0.5071,-0.6216,221.93,307.21,143.4,329.38
0.561,-0.3764,0.4917,-0.5494,210.28,333.17,109.5,327.19
0.6669,-0.415,0.4327,-0.4424,218.4,31.27,44.62,325.68
0.7343,-0.4656,0.3436,-0.3549,246.75,53.1,21.45,324.3
0.7418,-0.5322,0.2586,-0.3156,267.96,64.42,16.13,325.18
0.6581,-0.666,0.2166,-0.2765,278.41,88.55,5.73,324.21
0.5633,-0.7649,0.1582,-0.2696,287.6,105.83,4.38,325.37
0.4737,-0.8197,0.0985,-0.3065,286.85,116.89,9.24,323.72
0.3251,-0.8501,0.089,-0.4045,263.56,133.82,9.65,324.86
0.1624,-0.8582,0.1447,-0.465,244.63,164.36,349.51,327.37
0.0278,-0.8453,0.2345,-0.4793,249.15,198.26,319.33,330.93
-0.0477,-0.887,0.2446,-0.3888,276.41,201.63,320.82,333.16
-0.1738,-0.8883,0.1506,-0.3975,278.33,214.5,327.57,333.89
-0.3119,-0.8289,0.0589,-0.4606,266.75,236.3,325.91,332.17
-0.4552,-0.6875,-0.0906,-0.5585,243.49,274.18,313.13,334.06
-0.6411,-0.4585,-0.2615,-0.5572,244.4,326.2,297.05,335.94
-0.8361,-0.0856,-0.424,-0.3373,259.87,12.87,310.03,341.57
-0.8271,0.2709,-0.4746,-0.1315,268.91,54.9,317.33,343.98
-0.7924,0.3947,-0.4551,-0.0961,279.61,68.96,317.95,347.11
-0.8108,0.3689,-0.4342,-0.1342,285.53,63.85,317.5,348.2
-0.7869,0.34,-0.4796,-0.1875,282.31,66.64,307.09,349.34
-0.7907,0.3495,-0.4356,-0.2507,298.18,64.0,305.21,347.8
-0.8092,0.4054,-0.3356,-0.2612,321.31,61.79,312.57,346.92
-0.7897,0.505,-0.1874,-0.2935,0.04,65.18,319.24,349.52
-0.8936,0.3828,0.0481,-0.2295,30.34,43.31,337.24,350.92
-0.9088,0.3574,0.1174,-0.1802,40.02,40.27,344.97,351.18
-0.8702,0.459,0.085,-0.1577,34.05,53.85,348.15,351.82
-0.8541,0.438,0.0493,-0.2763,38.08,49.69,333.03,354.44
-0.8668,0.2958,-0.0416,-0.3993,18.9,33.61,313.39,351.61
-0.934,0.0943,-0.114,-0.3253,342.55,14.67,320.47,349.88
-0.9203,0.0738,-0.1033,-0.37,344.42,12.38,315.35,347.25
-0.8828,0.1191,-0.0655,-0.4496,359.02,15.62,305.96,346.96
-0.8596,0.1779,-0.0541,-0.4759,8.76,21.0,302.87,349.46
-0.8378,0.3282,-0.0947,-0.426,13.89,39.44,308.59,347.26
-0.6872,0.5581,-0.1507,-0.4399,32.99,69.77,306.29,349.7
-0.5188,0.7024,-0.2449,-0.4213,39.48,96.5,303.9,352.45
-0.4103,0.7498,-0.3638,-0.3703,29.75,113.74,298.49,352.6
-0.3789,0.7145,-0.458,-0.369,20.77,116.62,288.26,351.92
-0.4898,0.5818,-0.5093,-0.4027,356.52,101.29,279.03,350.67
-0.5634,0.4832,-0.5541,-0.3769,329.85,94.81,276.05,349.62
-0.5951,0.4272,-0.5732,-0.3671,316.73,91.36,274.52,349.09
-0.6411,0.383,-0.5729,-0.3379,303.2,86.72,277.53,350.82
-0.7176,0.3587,-0.5443,-0.245,285.47,79.13,291.17,349.13
-0.7712,0.3598,-0.5059,-0.1413,274.53,71.81,307.61,346.01
-0.7771,0.3721,-0.5046,-0.055,263.96,71.36,316.43,347.23
-0.7835,0.3476,-0.5143,0.026,249.02,66.13,325.99,346.34
-0.8186,0.3095,-0.4727,0.103,246.2,48.55,346.89,348.82
-0.8406,0.311,-0.4103,0.1686,254.77,39.29,2.67,346.46
-0.8419,0.3568,-0.3379,0.2228,266.55,41.06,11.27,348.93
-0.8298,0.4031,-0.2752,0.2704,275.13,44.81,17.91,348.22
-0.818,0.43,-0.2264,0.3078,281.14,46.91,23.56,347.38
-0.8098,0.4264,-0.1873,0.3569,285.15,44.52,31.79,348.93
-0.8027,0.422,-0.1645,0.388,287.45,42.99,36.9,348.29
-0.8043,0.4222,-0.1284,0.3978,294.29,43.39,39.26,348.46
-0.821,0.3869,-0.0784,0.4124,306.8,39.66,43.59,351.1
-0.8443,0.3374,-0.0042,0.4163,326.52,36.24,46.98,351.05
-0.8512,0.307,0.0639,0.421,342.79,35.66,49.86,347.38
-0.8369,0.3029,0.1027,0.4442,348.84,36.95,54.05,348.59
-0.8202,0.2888,0.1493,0.4708,356.9,37.92,59.18,347.64
-0.8069,0.2558,0.1824,0.5002,4.4,36.56,64.32,349.2
-0.7945,0.1922,0.2052,0.5382,13.7,32.01,70.19,349.71
-0.758,0.0731,0.2377,0.603,31.59,24.4,80.44,349.7
-0.6757,-0.0193,0.3371,0.6553,57.48,28.3,95.63,348.17
-0.5646,-0.1103,0.3824,0.7231,72.5,32.09,114.78,351.05
-0.3949,-0.2632,0.3954,0.7864,93.14,37.03,143.07,347.51
-0.1587,-0.3368,0.3664,0.8527,87.36,45.75,178.11,349.4
0.0712,-0.3418,0.3777,0.8576,64.34,55.37,206.69,350.01
0.2466,-0.3462,0.3983,0.8128,42.97,61.57,226.66,350.13
0.3616,-0.3578,0.4253,0.7486,26.37,66.88,240.3,350.67
0.4573,-0.3373,0.445,0.6921,6.86,67.85,249.22,352.9
0.5109,-0.2815,0.4827,0.6533,345.6,67.75,251.21,349.64
0.5172,-0.2467,0.5141,0.6382,334.94,69.0,249.41,348.76
0.5386,-0.1828,0.5098,0.6454,323.5,64.2,248.19,348.72
0.5696,-0.0913,0.501,0.6451,306.13,57.33,247.97,350.06
0.618,-0.0184,0.4412,0.6504,297.14,44.37,253.98,348.22
0.6414,-0.0168,0.3727,0.6704,305.79,35.84,258.55,347.88
0.648,-0.035,0.3288,0.6861,315.57,32.43,260.2,350.83
0.6797,-0.0549,0.3421,0.6465,313.58,34.23,265.64,348.22
0.7314,-0.1229,0.35,0.5723,316.41,38.69,276.18,350.04
0.8054,-0.2392,0.2207,0.4954,346.39,37.46,294.5,349.91
0.8591,-0.4065,-0.0697,0.303,42.95,44.85,330.1,352.53
0.8367,-0.4812,-0.2211,0.1397,60.59,59.43,358.61,354.08
0.7655,-0.4875,-0.4184,0.0353,84.91,76.31,28.67,356.8
0.7338,-0.4714,-0.4875,-0.0403,85.28,83.74,44.85,359.64
0.7162,-0.4652,-0.5046,-0.1265,74.48,85.82,54.81,0.73
0.6805,-0.4766,-0.5152,-0.2105,60.07,89.02,63.93,0.18
0.6598,-0.4968,-0.4951,-0.2697,45.34,89.0,66.75,0.0
0.6664,-0.4921,-0.487,-0.2768,44.25,87.44,66.3,2.33
0.6752,-0.4769,-0.506,-0.2464,53.27,87.88,65.79,0.73
0.6679,-0.4735,-0.533,-0.2135,61.29,91.11,66.67,1.25
0.6779,-0.5012,-0.4782,-0.2462,47.36,87.47,62.59,3.04
0.6874,-0.5117,-0.4188,-0.3004,31.13,82.51,60.88,2.17
0.7132,-0.4643,-0.4159,-0.3207,34.38,76.5,62.01,2.2
0.7236,-0.4203,-0.4213,-0.3496,36.81,72.09,65.03,1.25
0.7135,-0.4066,-0.4195,-0.3869,32.99,70.66,68.68,3.04
0.7205,-0.3851,-0.4083,-0.4074,31.87,67.37,69.63,2.3
0.7173,-0.3729,-0.4089,-0.4233,31.44,66.27,71.39,1.93
0.7163,-0.3667,-0.4075,-0.4317,30.99,65.54,72.17,2.62
0.7182,-0.3681,-0.4034,-0.4313,30.37,65.28,71.73,3.21
0.7175,-0.3693,-0.411,-0.4241,32.11,66.1,71.66,3.68
0.7182,-0.363,-0.4128,-0.4266,32.9,65.64,72.08,2.68
0.7225,-0.3502,-0.403,-0.4392,31.89,63.44,72.49,2.37
0.7254,-0.3394,-0.3826,-0.4606,28.07,60.56,73.05,1.4
0.7147,-0.3542,-0.3366,-0.5005,14.53,58.21,74.06,2.33
0.6533,-0.4187,-0.2559,-0.5765,342.93,58.38,78.08,2.47
0.5737,-0.4719,-0.1044,-0.6613,299.43,51.9,83.11,4.13
0.4677,-0.5315,-0.0064,-0.7062,263.73,49.32,89.79,6.65
0.3454,-0.574,0.1091,-0.7343,226.6,36.7,104.99,6.8
0.2838,-0.5691,0.1018,-0.765,223.58,26.77,120.98,9.43
0.2914,-0.5038,-0.0614,-0.8109,257.26,39.05,121.11,8.99
0.2625,-0.5115,-0.2253,-0.7866,273.31,58.93,117.79,9.63
0.1572,-0.5269,-0.2648,-0.7922,262.57,62.51,126.82,8.46
0.0934,-0.5436,-0.3005,-0.7781,255.66,68.14,129.67,8.77
0.0326,-0.5428,-0.2482,-0.8017,242.68,56.44,141.78,8.77
-0.0089,-0.5396,-0.2298,-0.8099,237.16,49.28,150.78,10.93
-0.0268,-0.5351,-0.2562,-0.8046,237.97,52.33,151.52,11.0
-0.0484,-0.5235,-0.2981,-0.7967,240.69,57.13,152.28,10.29
-0.0754,-0.4951,-0.3033,-0.8107,243.91,52.01,160.34,10.43
-0.1038,-0.4888,-0.3051,-0.8107,242.29,49.49,165.44,10.08
-0.1509,-0.5042,-0.3278,-0.7846,234.23,52.62,168.13,10.92
-0.1759,-0.4975,-0.3226,-0.7858,232.89,48.2,174.26,10.03
-0.1876,-0.5041,-0.3029,-0.7867,229.86,43.01,178.61,11.35
-0.192,-0.5123,-0.3048,-0.7796,227.34,43.91,178.16,9.87
-0.1842,-0.5003,-0.3131,-0.786,231.22,45.43,176.84,12.43
-0.1801,-0.5083,-0.3109,-0.7827,229.65,46.31,175.33,10.6
-0.1922,-0.5213,-0.3194,-0.7676,225.22,48.96,174.34,12.02
-0.2013,-0.5291,-0.3242,-0.7579,222.32,50.47,173.95,11.86
-0.2231,-0.5247,-0.2923,-0.7678,221.18,37.64,185.85,10.55
-0.2549,-0.5231,-0.2414,-0.7766,221.37,17.85,203.95,9.7
-0.295,-0.5456,-0.1565,-0.7687,222.8,347.12,230.8,11.67
-0.3418,-0.599,-0.0568,-0.7219,230.71,310.12,263.47,11.88
-0.3571,-0.6585,-0.0721,-0.6586,226.5,288.07,288.03,14.22
-0.3234,-0.8211,-0.1787,-0.4351,247.78,222.34,1.24,13.76
-0.2612,-0.8826,-0.288,-0.2643,283.8,203.1,28.07,13.13
-0.1551,-0.8314,-0.4421,-0.2987,281.33,179.54,56.17,13.45
-0.0479,-0.7549,-0.5805,-0.3014,298.58,161.16,80.34,10.56
-0.0099,-0.7229,-0.6344,-0.2735,311.84,158.62,87.15,11.63
-0.0448,-0.6983,-0.6547,-0.2859,305.49,159.47,91.33,8.47
-0.1581,-0.6944,-0.6716,-0.2045,300.49,176.36,89.05,9.07
-0.2328,-0.693,-0.6656,-0.1501,297.61,188.25,85.38,10.61
-0.2347,-0.6856,-0.6704,-0.1595,295.53,187.32,86.6,12.27
-0.2808,-0.6983,-0.6531,-0.0836,302.18,198.86,81.27,10.07
-0.2375,-0.7129,-0.6475,-0.1267,301.55,191.53,81.48,11.53
-0.1748,-0.7249,-0.6399,-0.186,300.88,181.01,82.6,10.44
-0.157,-0.7351,-0.6399,-0.1598,308.33,181.67,81.7,8.24
-0.1793,-0.7332,-0.6281,-0.1891,299.66,181.68,80.72,8.94
-0.201,-0.7264,-0.6215,-0.2137,291.84,181.82,80.54,10.85
-0.2363,-0.734,-0.6039,-0.2018,288.87,187.28,76.55,12.22
-0.3392,-0.7453,-0.5399,-0.1947,277.93,203.05,63.11,10.0
-0.4026,-0.7625,-0.4596,-0.2128,272.02,215.57,47.39,11.79
-0.4454,-0.7627,-0.4061,-0.2347,267.94,224.74,36.24,11.94
-0.4494,-0.7642,-0.3785,-0.266,263.36,226.89,30.69,12.82
-0.4568,-0.7632,-0.3544,-0.2887,260.3,229.83,25.45,13.93
-0.4758,-0.7619,-0.3238,-0.297,260.93,235.17,18.95,13.15
-0.4791,-0.7533,-0.3177,-0.3196,256.39,237.02,16.18,15.03
-0.4822,-0.7383,-0.3244,-0.3423,250.17,238.47,15.0,12.27
-0.4941,-0.7219,-0.3341,-0.3508,246.41,240.99,14.35,13.01
-0.5198,-0.7209,-0.307,-0.3404,251.81,247.14,8.7,11.27
-0.5509,-0.7282,-0.2617,-0.3126,263.91,252.81,3.15,13.59
-0.5581,-0.734,-0.246,-0.2987,269.01,253.54,2.27,12.69
-0.5499,-0.7378,-0.2636,-0.2894,268.39,250.93,5.82,12.39
-0.5547,-0.7241,-0.3008,-0.2783,265.07,250.13,10.82,13.25
-0.5848,-0.7013,-0.3176,-0.2554,266.27,254.26,12.39,12.53
-0.6001,-0.6732,-0.3469,-0.2575,260.53,256.85,14.15,13.93
-0.6067,-0.6514,-0.376,-0.2573,255.36,257.59,16.89,12.14
-0.6336,-0.6165,-0.3829,-0.2679,250.7,264.69,13.25,12.34
-0.6413,-0.5702,-0.4045,-0.3161,236.87,272.69,6.75,11.64
-0.6228,-0.5535,-0.436,-0.3402,226.25,271.05,8.61,13.24
-0.6282,-0.5598,-0.4274,-0.3306,229.77,271.08,8.63,14.68
-0.6417,-0.5567,-0.4026,-0.3408,232.66,277.26,1.39,14.44
-0.5545,-0.6277,-0.4337,-0.3323,232.16,248.06,23.59,13.17
-0.4558,-0.7331,-0.4316,-0.2619,257.96,224.67,38.8,14.34
-0.3851,-0.8184,-0.3891,-0.175,288.25,217.57,38.28,9.39
-0.301,-0.8723,-0.367,-0.1175,309.58,209.02,39.01,9.81
-0.2595,-0.8934,-0.3616,-0.0616,325.37,206.04,40.03,8.56
-0.2377,-0.9004,-0.3645,-0.0004,339.95,205.75,41.78,9.64
-0.2138,-0.9082,-0.3595,0.0153,345.54,203.73,41.67,4.24
-0.1443,-0.9199,-0.3639,0.0224,352.68,196.4,42.64,5.11
-0.1586,-0.911,-0.3795,0.0301,352.47,198.21,44.63,5.35
-0.1816,-0.8955,-0.4054,-0.0293,336.96,197.92,46.89,3.37
-0.1134,-0.8965,-0.4212,-0.0776,332.85,188.16,49.36,6.1
-0.0997,-0.8807,-0.4511,-0.1046,328.17,184.85,53.56,4.78
-0.1051,-0.8434,-0.5105,-0.1303,321.81,182.68,61.92,5.35
-0.1297,-0.7958,-0.5563,-0.2011,304.65,178.88,70.19,1.95
-0.1554,-0.7422,-0.5754,-0.3065,281.33,170.92,78.83,5.69
-0.2919,-0.6561,-0.5261,-0.4556,230.37,166.93,85.77,7.39
-0.4049,-0.5842,-0.4519,-0.5391,190.56,171.19,83.48,7.43
-0.4031,-0.6192,-0.4379,-0.5121,198.27,198.63,54.62,10.9
-0.4308,-0.7215,-0.3835,-0.3832,235.92,224.36,28.43,9.63
-0.4674,-0.7995,-0.2931,-0.2374,278.36,233.48,19.04,12.22
-0.506,-0.8351,-0.1888,-0.1048,317.06,239.96,12.99,8.32
-0.4907,-0.8644,-0.1071,-0.0211,343.72,238.49,9.57,9.28
-0.4466,-0.893,-0.0301,0.0471,6.57,233.29,5.51,7.45
-0.3764,-0.9207,0.0339,0.0973,23.63,224.54,0.63,7.3
-0.2802,-0.9555,0.0554,0.0737,19.79,212.36,356.24,6.26
-0.2181,-0.9735,0.0652,0.0213,8.02,205.02,353.23,5.59
-0.2349,-0.9686,0.0569,-0.0581,350.15,207.61,352.06,7.13
-0.2698,-0.9538,0.068,-0.1134,339.31,212.61,348.81,5.11
-0.1774,-0.9721,0.117,-0.0993,342.57,201.87,344.58,3.53
-0.0249,-0.9844,0.1658,-0.0537,348.82,183.85,340.69,1.93
0.038,-0.9811,0.1883,-0.0212,353.6,176.17,338.37,1.43
0.0285,-0.9807,0.1928,-0.0131,355.79,177.08,337.81,0.24
0.0406,-0.9791,0.1984,0.0185,2.31,175.01,337.04,359.02
0.0596,-0.9752,0.201,0.0713,13.22,171.62,336.22,4.16
0.0698,-0.9684,0.2099,0.1155,22.42,169.21,334.48,0.98
0.103,-0.9536,0.2387,0.1518,27.81,163.92,329.91,2.01
0.1757,-0.928,0.2816,0.1693,24.85,154.43,323.4,356.46
0.2761,-0.8841,0.3018,0.226,26.94,140.04,317.39,0.0
0.3689,-0.8446,0.3422,0.1827,6.44,131.46,314.43,357.92
0.4146,-0.8151,0.3997,0.0627,333.5,131.77,313.71,356.17
0.4303,-0.7942,0.4288,0.0114,318.91,132.24,312.44,356.38
0.4263,-0.7699,0.471,-0.0608,300.64,136.4,309.18,355.3
0.4016,-0.7438,0.5094,-0.161,279.1,145.28,304.32,351.49
0.3857,-0.7206,0.531,-0.2234,265.95,152.14,299.55,354.15
0.3709,-0.7189,0.5374,-0.2385,264.28,155.62,297.39,354.1
0.3433,-0.7199,0.5416,-0.2657,262.05,161.67,294.49,353.19
0.2871,-0.7258,0.5446,-0.3068,261.4,172.72,289.58,354.17
0.2279,-0.7387,0.5349,-0.3412,263.21,182.44,287.09,356.45
0.1859,-0.7518,0.5167,-0.365,264.38,188.37,287.28,353.51
0.1554,-0.7657,0.4956,-0.3793,265.39,191.74,289.02,355.77
0.1164,-0.7815,0.476,-0.3862,268.81,195.39,290.81,357.23
0.0597,-0.7678,0.4215,-0.4788,256.45,210.28,287.51,354.16
-0.0671,-0.7936,0.4237,-0.4314,282.21,217.34,290.2,354.52
-0.2261,-0.8005,0.4321,-0.3483,317.52,225.35,294.32,357.09
-0.4969,-0.693,0.4472,-0.2699,8.07,248.81,297.1,357.96
-0.6402,-0.6323,0.3888,-0.1981,28.63,263.97,309.72,2.38
-0.7486,-0.5909,0.2714,-0.1292,29.39,279.18,327.89,1.72
-0.8532,-0.4804,0.1996,0.0379,44.31,299.68,352.11,3.59
-0.8648,-0.4446,-0.0043,0.2333,23.08,308.11,24.56,6.27
-0.8574,-0.1729,-0.1992,0.4419,338.24,331.24,57.33,8.68
-0.7572,0.1042,-0.3485,0.5425,280.29,343.31,77.33,11.48
-0.5276,-0.0365,-0.2309,0.8167,338.78,334.98,116.63,15.89
-0.2098,-0.0737,-0.029,0.9745,15.11,354.94,155.37,15.65
0.1192,-0.0512,0.1879,0.9736,6.3,22.25,194.58,13.93
0.424,0.0254,0.4871,0.7631,306.28,54.01,224.25,11.77
0.5835,0.0782,0.7221,0.3633,231.81,97.24,225.39,10.53
0.6847,0.0585,0.7159,0.1234,191.67,108.29,236.91,5.06
0.7194,0.0255,0.6923,-0.0493,192.91,290.89,71.05,359.2
0.7177,0.0269,0.6631,-0.2108,219.72,290.53,84.65,0.78
0.7145,-0.1091,0.6654,-0.1867,194.9,314.41,69.79,0.0
0.6834,-0.2387,0.669,-0.1683,191.64,95.2,298.3,0.0
0.6318,-0.3697,0.6724,-0.1102,222.82,119.09,281.31,3.09
0.5306,-0.4946,0.6865,-0.0505,257.76,133.47,274.79,4.52
0.4831,-0.5604,0.6727,-0.0021,278.57,134.71,277.2,6.99
0.5351,-0.5575,0.6346,0.0088,275.96,125.1,285.17,9.89
0.5183,-0.5758,0.6313,0.0352,284.25,125.66,284.71,12.04
0.4852,-0.5951,0.6357,0.08,297.12,127.25,282.11,8.81
0.5144,-0.5619,0.6437,0.0729,289.05,124.41,281.38,10.95
0.4989,-0.5648,0.6472,0.1152,297.93,123.72,279.12,9.87
0.4946,-0.5653,0.6392,0.1647,307.0,120.66,278.25,12.72
0.5562,-0.508,0.6459,0.1237,287.28,115.81,279.64,10.26
0.5942,-0.4869,0.624,0.1432,285.96,108.47,283.04,8.61
0.6446,-0.4601,0.5873,0.167,285.77,98.16,288.6,11.57
0.7323,-0.3703,0.5584,0.1219,266.64,81.43,300.36,10.55
0.7746,-0.3487,0.5044,0.1553,275.4,70.4,306.8,8.46
0.8108,-0.3136,0.4698,0.1533,276.54,60.99,313.28,6.78
0.8453,-0.244,0.4615,0.114,267.12,48.69,322.68,7.06
0.8484,-0.2438,0.4564,0.1114,267.88,47.98,323.61,6.99
0.8353,-0.2646,0.4691,0.1102,267.0,52.41,321.09,5.37
0.8199,-0.2859,0.4835,0.1112,266.36,57.36,317.91,7.33
0.8035,-0.3051,0.4977,0.1165,266.44,62.31,314.19,6.78
0.7752,-0.3319,0.523,0.1241,266.48,70.14,308.04,6.52
0.7481,-0.3575,0.5369,0.1557,272.42,76.56,301.29,7.56
0.7491,-0.3291,0.5527,0.1587,267.3,75.53,299.39,8.37
0.7491,-0.3004,0.5711,0.1501,260.11,74.94,298.06,7.98
0.7438,-0.2998,0.569,0.1822,265.02,75.18,295.05,7.91
0.7482,-0.2824,0.5632,0.2078,266.99,72.58,293.94,8.61
0.7514,-0.2666,0.5538,0.24,270.46,69.87,292.47,10.12
0.7218,-0.2851,0.5455,0.3163,285.23,72.25,284.93,8.13
0.6646,-0.2993,0.53,0.4334,307.15,73.18,274.0,9.64
0.527,-0.3513,0.4456,0.6327,357.11,69.14,258.6,9.29
0.2754,-0.4084,0.3006,0.8167,60.19,55.84,233.49,13.85
-0.0482,-0.4389,0.1664,0.8817,104.36,24.17,185.71,17.23
-0.3947,-0.3725,-0.0153,0.8398,75.69,336.12,121.36,20.12
-0.6645,-0.1345,-0.206,0.7056,350.37,331.89,94.64,21.02
-0.8199,0.1881,-0.2893,0.4567,279.47,3.32,57.02,22.84
-0.8497,0.4699,-0.1674,0.1706,307.18,55.88,8.52,27.69
-0.9119,0.4059,0.0611,0.0012,12.67,48.16,2.99,29.93
-0.9269,0.3183,0.1576,-0.121,43.33,36.44,352.33,30.0
-0.8588,0.418,0.2354,-0.1797,67.35,49.56,352.27,29.22
-0.7411,0.4729,0.4182,-0.2285,113.43,68.29,5.94,33.12
-0.7191,0.4303,0.4961,-0.2272,130.75,70.76,13.92,34.08
-0.6922,0.31,0.589,-0.2791,162.54,41.34,351.95,35.7
-0.5657,0.2405,0.6878,-0.3862,149.11,256.6,203.47,37.01
-0.5166,0.2577,0.6943,-0.4296,139.72,253.64,194.48,35.74
-0.5656,0.2402,0.6325,-0.4716,140.77,284.59,223.16,34.85
-0.6571,0.2345,0.5325,-0.4792,135.21,327.96,266.04,33.41
-0.7736,0.1838,0.362,-0.4866,95.29,354.21,293.1,35.09
-0.8718,0.0381,0.0803,-0.4816,20.35,359.37,302.11,31.53
-0.88,-0.0646,-0.0123,-0.4705,350.54,354.12,303.98,27.97
-0.8677,-0.0741,-0.0724,-0.4861,337.2,356.6,301.82,26.02
-0.8562,-0.0812,-0.1171,-0.4967,327.34,358.65,299.96,23.81
-0.8504,-0.0719,-0.1516,-0.4986,321.51,1.76,298.94,25.82
-0.8224,-0.1233,-0.2846,-0.4769,288.29,4.86,298.21,25.2
-0.7748,-0.2992,-0.427,-0.3575,237.77,340.86,321.83,26.16
-0.7524,-0.3433,-0.4694,-0.3093,226.51,325.03,338.76,16.5
-0.734,-0.2916,-0.5147,-0.3336,216.33,344.25,322.55,18.96
-0.6348,-0.3203,-0.6257,-0.3208,181.48,336.14,329.95,16.54
-0.4446,-0.3366,-0.7773,-0.2915,234.94,160.52,145.08,17.53
-0.3718,-0.268,-0.8234,-0.3348,255.33,144.83,161.64,14.77
-0.3419,-0.2508,-0.8479,-0.3182,264.63,146.85,162.03,12.7
-0.3351,-0.2536,-0.8472,-0.325,265.78,145.99,161.85,14.57
-0.3437,-0.2545,-0.8397,-0.3346,263.24,144.36,162.71,13.01
-0.3845,-0.2757,-0.8253,-0.3083,252.84,150.01,158.45,15.91
-0.4386,-0.311,-0.7982,-0.2718,239.27,160.99,148.55,13.66
-0.4967,-0.3276,-0.7567,-0.2709,223.37,166.8,142.15,11.4
-0.5346,-0.3319,-0.7248,-0.2805,212.02,169.19,138.94,15.12
-0.5591,-0.3502,-0.7055,-0.2589,208.02,186.24,122.33,13.2
-0.5838,-0.3501,-0.6887,-0.2495,203.59,198.58,110.96,12.32
-0.6019,-0.3339,-0.6779,-0.2582,197.41,200.07,110.28,12.82
-0.6164,-0.3196,-0.6702,-0.2621,192.77,202.6,108.74,13.87
-0.6286,-0.3103,-0.662,-0.2652,189.09,209.44,102.5,14.2
-0.6362,-0.311,-0.6547,-0.2643,188.15,224.34,87.62,15.28
-0.6516,-0.316,-0.6386,-0.2606,189.22,259.13,52.71,12.08
-0.6644,-0.3149,-0.6212,-0.2711,189.98,290.09,20.9,14.86
-0.6731,-0.3139,-0.6064,-0.2841,191.85,310.87,359.03,15.28
-0.6922,-0.3134,-0.5783,-0.297,198.67,326.12,342.56,14.04
-0.7065,-0.3218,-0.5528,-0.3028,205.14,326.59,340.65,14.69
-0.7155,-0.3222,-0.5354,-0.3125,209.31,330.02,336.18,14.32
-0.7239,-0.319,-0.5202,-0.3219,213.14,333.55,331.94,14.44
-0.728,-0.3146,-0.5113,-0.3311,215.37,336.81,328.14,13.6
-0.7373,-0.3222,-0.4939,-0.3296,219.65,333.85,330.36,16.63
-0.7521,-0.3214,-0.4697,-0.3324,226.1,334.06,329.64,15.02
-0.7647,-0.3214,-0.4455,-0.337,232.23,334.25,328.65,13.46
-0.7758,-0.3254,-0.4221,-0.3377,237.98,333.02,329.05,14.31
-0.7872,-0.3302,-0.3963,-0.3379,244.2,331.69,329.42,14.32
-0.7936,-0.328,-0.382,-0.3416,247.71,332.22,328.44,14.73
-0.7989,-0.3216,-0.3702,-0.3482,250.73,333.74,326.65,14.48
-0.8046,-0.3242,-0.3553,-0.3484,254.21,332.97,326.81,15.28
-0.8097,-0.3192,-0.343,-0.3532,257.3,333.91,325.57,15.26
-0.8132,-0.3167,-0.3303,-0.3596,260.19,334.47,324.32,14.43
-0.8185,-0.323,-0.3064,-0.3631,265.2,333.1,324.14,13.64
-0.8235,-0.3366,-0.2746,-0.3649,271.49,330.39,324.47,12.3
-0.8245,-0.3492,-0.2469,-0.3707,276.49,328.23,323.97,13.03
-0.8171,-0.3692,-0.2278,-0.3796,278.52,325.38,323.37,15.07
-0.807,-0.384,-0.2178,-0.3921,278.5,323.65,322.07,13.63
-0.7964,-0.4007,-0.2075,-0.4027,278.43,321.52,321.14,16.08
-0.781,-0.4343,-0.2094,-0.397,275.58,316.26,323.73,15.38
-0.7833,-0.4447,-0.1952,-0.388,278.77,314.09,325.11,14.92
-0.79,-0.444,-0.1826,-0.3815,282.31,313.8,325.55,14.32
-0.7945,-0.4368,-0.183,-0.38,282.95,314.81,325.42,12.32
-0.8001,-0.4235,-0.1859,-0.382,283.23,316.89,324.62,14.32
-0.8077,-0.4061,-0.1824,-0.3866,285.02,319.53,323.1,15.07
-0.8136,-0.3961,-0.1737,-0.3886,287.61,320.85,322.2,14.77
-0.8194,-0.3884,-0.1618,-0.3892,290.83,321.67,321.53,12.91
-0.823,-0.3753,-0.1565,-0.3967,292.53,323.59,319.92,12.14
-0.8266,-0.3631,-0.1474,-0.4039,295.04,325.22,318.35,12.48
-0.8285,-0.3614,-0.132,-0.4068,298.3,325.08,317.62,11.17
-0.8301,-0.3559,-0.1253,-0.4105,299.97,325.7,316.83,13.86
-0.8276,-0.3624,-0.1237,-0.4104,299.72,324.81,317.01,13.46
-0.819,-0.4166,-0.1037,-0.3806,301.71,316.29,322.05,14.56
-0.8291,-0.4226,-0.0939,-0.3538,305.9,314.58,325.27,11.21
-0.8322,-0.4693,-0.1059,-0.2755,308.45,306.61,336.49,13.86
-0.79,-0.5779,-0.126,-0.1612,314.65,288.99,353.21,13.68
-0.6355,-0.7557,-0.1582,-0.0021,336.43,258.68,13.97,11.46
-0.2276,-0.9372,-0.1992,0.1735,27.12,210.66,27.73,7.68
0.3477,-0.8877,-0.1676,0.2509,68.38,139.86,8.56,3.17
0.666,-0.7146,-0.1254,0.1737,49.07,93.32,356.72,352.13
0.714,-0.6964,-0.07,-0.021,8.11,88.83,7.35,348.01
0.8112,-0.5534,-0.1763,-0.0681,24.32,70.56,18.22,348.88
0.8492,-0.3912,-0.3276,-0.136,53.48,57.55,33.08,347.39
0.8003,-0.2673,-0.4793,-0.2415,79.29,58.91,56.6,346.14
0.7282,-0.0933,-0.5702,-0.3686,99.22,59.14,83.09,343.74
0.645,0.1325,-0.5773,-0.4829,121.53,52.34,105.78,343.23
0.5635,0.3203,-0.4358,-0.6244,126.05,23.83,110.62,344.53
0.4915,0.4058,-0.1259,-0.7602,95.6,342.01,106.21,344.58
0.3036,0.5237,0.1249,-0.7861,96.76,309.26,113.72,347.79
0.0789,0.5246,0.4206,-0.736,89.79,277.77,128.1,349.52
-0.2413,0.4363,0.664,-0.5572,107.54,243.61,148.29,353.27
-0.541,0.2546,0.7478,-0.2886,145.89,212.19,166.49,354.51
-0.6663,-0.1034,0.7314,-0.1022,144.9,252.4,252.5,357.26
-0.6752,-0.5558,0.4849,-0.0036,81.22,263.34,314.25,358.2
-0.5742,-0.8106,0.0845,0.0779,25.81,250.3,357.2,356.42
-0.3767,-0.8801,-0.1439,0.2506,38.86,231.22,27.96,358.18
-0.211,-0.8625,-0.352,0.2961,42.46,217.89,51.77,357.53
-0.083,-0.7818,-0.5178,0.3373,52.4,212.27,74.74,357.46
-0.0838,-0.6337,-0.6305,0.4403,53.79,227.86,101.82,357.46
-0.2545,-0.3216,-0.7948,0.4473,346.58,241.74,131.93,359.45
-0.3034,0.0892,-0.9233,0.2179,286.39,205.79,182.33,1.7
-0.3251,0.3118,-0.8875,0.0975,280.73,177.79,219.51,4.86
-0.5198,0.37,-0.7492,0.1778,228.87,163.39,243.3,10.22
-0.7408,0.3871,-0.5209,0.173,230.14,68.17,339.71,8.04
-0.8462,0.3742,-0.3786,0.0238,277.61,54.85,341.15,6.71
-0.8949,0.3468,-0.2394,-0.147,321.9,46.99,333.0,5.8
-0.9128,0.262,-0.2335,-0.2088,323.05,37.38,327.93,5.69
-0.8869,0.2296,-0.2582,-0.3066,323.02,36.61,315.69,8.24
-0.8003,0.4142,-0.2149,-0.3766,356.34,55.61,308.64,5.05
-0.6837,0.5988,-0.1639,-0.3836,27.22,76.37,312.13,9.07
-0.6398,0.6596,-0.1512,-0.3643,33.37,84.97,315.98,10.49
-0.527,0.7439,0.1662,-0.3759,94.51,103.8,347.33,11.53
-0.5373,0.7129,0.3229,-0.3145,105.37,111.78,11.66,15.59
-0.6009,0.5711,0.3882,-0.4026,135.75,82.95,353.85,17.83
-0.4331,0.6358,0.5563,-0.3142,123.62,154.8,67.13,18.84
-0.3598,0.4925,0.646,-0.4589,132.97,216.7,129.88,17.46
-0.3896,0.2561,0.5625,-0.6828,104.02,292.54,203.34,21.45
-0.3227,0.252,0.6559,-0.6342,95.96,271.08,186.76,21.46
-0.2869,0.198,0.6021,-0.7183,78.09,284.67,192.93,23.23
-0.1754,-0.0666,0.3075,-0.9328,358.12,323.33,201.61,18.16
0.0707,-0.3652,-0.1198,-0.9205,278.11,21.13,163.25,15.81
0.1216,-0.4338,-0.0867,-0.8886,262.85,23.09,153.88,9.9
0.1299,-0.4928,-0.1938,-0.8383,258.24,45.89,139.61,8.38
0.1568,-0.565,-0.2749,-0.762,258.43,70.56,119.62,5.46
0.2557,-0.4934,-0.3426,-0.7575,290.18,70.16,117.78,2.37
0.2299,-0.4942,-0.4529,-0.7055,301.44,83.33,117.73,3.46
0.2401,-0.4697,-0.4312,-0.732,302.55,77.7,120.37,357.24
0.1976,-0.5103,-0.3441,-0.763,280.01,71.55,121.58,358.82
0.0948,-0.5993,-0.3142,-0.7301,250.71,81.63,117.1,5.19
0.0913,-0.6332,-0.262,-0.7226,239.72,82.97,111.38,2.99
0.1204,-0.6572,-0.2307,-0.7073,238.1,86.5,102.74,9.46
0.0645,-0.7437,-0.2678,-0.6091,238.74,120.61,76.49,7.13
0.0436,-0.7564,-0.2883,-0.5856,241.21,127.57,73.1,10.03
0.0592,-0.7401,-0.285,-0.6063,240.55,120.76,78.27,4.05
0.0452,-0.7148,-0.301,-0.6296,238.41,114.6,86.95,3.15
0.0583,-0.6675,-0.3244,-0.6676,242.81,101.26,101.29,7.81
0.0734,-0.6618,-0.3292,-0.6695,246.17,99.77,101.98,0.0
0.0919,-0.5794,-0.3671,-0.7218,259.46,84.71,119.18,7.62
0.1814,-0.4275,-0.3871,-0.7965,294.54,66.55,132.53,2.54
0.2322,-0.3927,-0.3909,-0.7994,306.97,64.46,130.72,0.0
0.2251,-0.4221,-0.381,-0.7912,300.47,65.99,128.66,1.57
0.1735,-0.461,-0.3852,-0.7804,288.29,69.92,129.43,0.0
0.1478,-0.4693,-0.386,-0.7803,283.61,70.56,131.02,1.59
0.1577,-0.4418,-0.3909,-0.7919,289.6,68.16,133.25,2.58
0.1199,-0.4795,-0.3834,-0.7802,277.96,70.96,132.67,4.93
0.0383,-0.5181,-0.3574,-0.7762,258.05,70.74,136.97,1.27
-0.0225,-0.5461,-0.3416,-0.7646,243.47,71.13,139.92,0.44
-0.098,-0.572,-0.3174,-0.75,226.09,68.38,146.51,1.29
-0.1371,-0.5541,-0.3056,-0.7621,223.63,57.61,159.58,3.78
-0.0873,-0.4673,-0.3154,-0.8213,249.3,50.15,164.56,7.62
-0.0773,-0.4664,-0.3022,-0.8278,250.07,48.24,164.45,7.59
-0.1485,-0.4873,-0.2511,-0.8231,237.5,33.96,179.96,6.29
-0.1327,-0.4599,-0.2233,-0.8491,245.65,28.33,182.1,3.15
-0.0979,-0.4909,-0.1855,-0.8456,239.88,25.85,178.1,5.71
-0.1166,-0.5928,-0.0929,-0.7914,212.53,1.81,195.41,7.81
-0.0913,-0.5553,0.0025,-0.8266,226.86,344.61,202.74,10.76
-0.0957,-0.5117,0.0456,-0.8526,240.5,339.59,204.61,14.44
-0.1372,-0.5107,0.0672,-0.8461,244.51,331.59,214.31,11.05
-0.1692,-0.4703,0.0764,-0.8627,256.43,331.94,216.02,13.7
-0.1889,-0.3432,0.063,-0.9179,285.37,342.03,209.37,12.67
-0.2752,-0.2937,0.0761,-0.9123,300.78,339.78,218.97,15.04
-0.3859,-0.276,0.1161,-0.8726,313.83,333.14,233.3,16.0
-0.4936,-0.2486,0.1372,-0.822,328.28,330.69,246.14,9.46
-0.6083,-0.1536,0.1484,-0.7644,353.78,335.52,257.7,17.93
-0.6499,-0.0655,0.1456,-0.743,10.54,342.38,261.53,15.04
-0.632,-0.0447,0.1591,-0.7571,15.34,342.54,258.53,15.95
-0.5794,-0.0342,0.1654,-0.7974,15.76,342.17,250.77,16.7
-0.5346,0.0476,0.1522,-0.8299,27.99,348.0,244.1,16.77
-0.5405,0.2499,0.087,-0.7986,59.1,8.67,250.47,15.22
-0.5506,0.4269,0.026,-0.7169,79.68,34.31,267.82,19.95
-0.5706,0.4846,0.0445,-0.6615,87.56,43.19,279.64,22.69
-0.5569,0.5633,0.0724,-0.6061,99.53,56.67,293.24,15.06
-0.5192,0.646,0.0586,-0.5564,102.49,75.35,306.68,18.13
-0.4685,0.7548,-0.023,-0.4586,84.24,100.91,321.23,18.73
-0.3907,0.8638,-0.125,-0.2927,48.15,124.98,330.85,17.41
-0.2947,0.9234,-0.2237,-0.1018,6.45,143.79,331.71,19.22
-0.2127,0.921,-0.3212,0.058,331.82,158.56,324.22,18.59
-0.098,0.8514,-0.4316,0.2815,291.36,185.29,304.6,21.11
-0.0061,0.7754,-0.4527,0.4403,273.01,212.44,286.21,17.17
0.0336,0.7229,-0.3863,0.5719,253.57,234.99,274.53,17.39
0.0814,0.6199,-0.3217,0.711,247.97,272.5,247.03,16.8
0.1588,0.4677,-0.2937,0.8184,275.52,301.79,226.24,12.9
0.1707,0.344,-0.2647,0.8846,297.57,316.78,214.48,16.2
0.1534,0.1873,-0.2308,0.9424,327.22,329.11,203.05,14.93
0.1465,-0.036,-0.1838,0.9713,14.22,339.56,195.87,13.37
0.1505,-0.2484,-0.1427,0.9462,61.73,346.84,194.43,12.55
0.159,-0.4226,-0.1287,0.8829,103.85,351.33,196.18,10.5
0.1551,-0.5389,-0.1132,0.8202,133.61,357.3,199.64,11.76
0.1653,-0.6258,-0.0943,0.7564,155.86,17.88,219.15,10.92
0.1829,-0.6888,-0.1023,0.694,166.91,74.59,277.89,12.87
0.1904,-0.7117,-0.1272,0.6641,167.17,114.02,320.02,11.47
0.1959,-0.7142,-0.1379,0.6577,166.88,120.56,327.92,11.83
0.2058,-0.7676,-0.1149,0.596,148.42,138.83,345.3,12.29
0.2021,-0.7991,-0.1077,0.5559,137.46,145.89,351.65,10.95
0.2049,-0.8105,-0.1081,0.538,132.81,147.37,353.5,11.54
0.2118,-0.8111,-0.0912,0.5375,131.16,143.55,348.88,11.64
0.2158,-0.8176,-0.0653,0.5299,126.91,140.61,344.18,11.78
0.2068,-0.8472,-0.0441,0.4874,115.13,145.03,346.32,9.36
0.201,-0.8823,-0.0257,0.4247,98.91,149.2,348.88,13.26
0.2157,-0.9093,-0.0265,0.3548,82.1,150.32,352.0,11.15
0.1978,-0.9216,-0.0308,0.3327,77.41,153.84,354.5,10.29
0.1822,-0.9193,-0.0368,0.3469,81.27,155.93,355.55,12.07
0.1928,-0.9288,-0.0593,0.3108,73.77,156.31,359.3,11.15
0.1867,-0.9311,-0.0761,0.3038,72.92,157.98,2.01,12.41
0.1855,-0.9257,-0.0819,0.3193,76.85,158.18,2.42,12.73
0.2053,-0.9202,-0.0947,0.3195,77.65,155.97,3.17,12.31
0.2232,-0.8968,-0.1194,0.3629,89.52,153.78,4.22,11.81
0.1865,-0.8845,-0.1241,0.4092,100.75,159.03,6.02,11.5
0.1538,-0.8604,-0.1314,0.4677,115.4,164.62,8.86,9.96
0.1598,-0.8251,-0.159,0.5182,129.86,166.5,13.2,12.53
0.1137,-0.767,-0.1755,0.6066,152.07,189.17,32.95,12.6
0.0918,-0.7164,-0.1823,0.6672,163.3,230.25,72.66,14.52
0.1038,-0.6801,-0.2045,0.6964,163.45,266.57,111.82,14.52
0.1046,-0.6461,-0.2296,0.7204,156.39,286.99,134.48,14.63
0.1126,-0.5434,-0.2656,0.7884,132.85,312.17,163.87,12.29
0.1286,-0.4497,-0.2614,0.8443,111.51,324.62,178.16,13.16
0.1327,-0.3545,-0.2828,0.8813,88.85,325.51,182.68,13.28
0.1016,-0.234,-0.2602,0.9312,58.52,329.94,184.44,13.82
0.1443,-0.189,-0.2303,0.9436,50.06,335.19,191.8,15.08
0.1552,-0.1861,-0.2492,0.9377,50.46,333.08,192.67,16.56
0.1634,-0.1512,-0.231,0.9472,42.43,335.4,194.89,14.85
0.162,-0.2057,-0.1763,0.9489,53.17,342.57,195.23,14.21
0.0879,-0.3051,-0.1179,0.9409,73.0,347.92,186.68,14.12
0.0464,-0.3093,-0.0991,0.9446,72.83,348.64,181.88,11.79
0.0485,-0.2875,-0.105,0.9508,67.67,348.07,182.2,12.97
0.0298,-0.3229,-0.0985,0.9408,75.67,347.87,179.46,13.25
0.0373,-0.4253,-0.08,0.9008,101.08,349.8,179.92,14.76
0.0547,-0.4199,-0.1028,0.9001,100.19,347.48,181.09,14.04
0.1007,-0.4172,-0.1279,0.8941,101.03,346.85,186.62,11.65
0.12,-0.4303,-0.1165,0.8871,104.62,350.25,190.61,13.95
0.1465,-0.4656,-0.1023,0.8668,113.66,355.71,196.86,13.62
0.1727,-0.5324,-0.1122,0.8211,131.85,359.96,203.73,11.04
0.1612,-0.6112,-0.1047,0.7678,152.95,8.92,210.75,13.49
0.1392,-0.6816,-0.0554,0.7162,165.28,59.64,255.49,14.96
0.1363,-0.6914,-0.0248,0.7091,161.69,74.39,267.52,12.07
0.1519,-0.6321,-0.0279,0.7594,151.12,36.88,231.61,14.72
0.1018,-0.7211,0.0385,0.6842,156.46,102.16,287.32,13.11
0.0922,-0.7911,0.0689,0.6008,139.39,138.78,320.7,11.08
0.0888,-0.8024,0.0835,0.5842,134.66,141.5,321.93,12.09
0.1255,-0.7176,0.1003,0.6777,142.68,98.98,281.06,12.05
0.0699,-0.8254,0.1793,0.5308,116.68,144.39,315.16,12.6
0.0789,-0.9097,0.165,0.3728,81.42,159.42,331.73,9.49
0.1085,-0.9116,0.1654,0.3603,76.79,156.14,331.01,9.9
0.1109,-0.9136,0.2113,0.3292,67.38,155.74,326.51,10.87
0.1323,-0.9039,0.2217,0.3411,67.84,151.93,323.72,9.7
0.1451,-0.9008,0.2292,0.3392,66.0,150.2,322.44,10.01
0.16,-0.8922,0.2465,0.3429,64.42,147.49,319.48,9.13
0.2035,-0.837,0.2199,0.4578,85.2,132.57,311.11,10.75
0.2238,-0.7782,0.2214,0.5434,96.6,117.7,297.91,9.78
0.2335,-0.7591,0.2388,0.5588,94.92,113.22,292.75,9.44
0.272,-0.7276,0.2567,0.575,88.39,105.42,286.77,9.11
0.3131,-0.6588,0.2544,0.635,85.27,89.8,275.0,9.71
0.3279,-0.6076,0.2539,0.6774,82.08,79.87,266.46,9.78
0.3223,-0.6072,0.2754,0.672,79.37,81.71,265.9,9.44
0.317,-0.6244,0.3109,0.6426,74.51,88.05,268.61,9.97
0.3279,-0.6051,0.338,0.6419,67.44,87.31,266.38,9.03
0.3669,-0.5258,0.3353,0.6903,57.35,75.33,258.3,7.37
0.384,-0.4552,0.3354,0.7299,48.04,66.75,251.45,7.33
0.3979,-0.4044,0.3531,0.744,37.41,63.43,247.9,8.22
0.4157,-0.3725,0.3633,0.746,29.39,61.7,247.06,5.73
0.4379,-0.315,0.3658,0.7584,18.12,57.27,244.96,6.51
0.4437,-0.271,0.3798,0.7652,8.9,55.5,242.56,8.73
0.4373,-0.2772,0.4027,0.7548,7.59,58.46,242.3,7.4
0.3988,-0.3365,0.4531,0.7228,14.36,68.55,242.67,5.76
0.3119,-0.4339,0.5158,0.6696,30.07,84.57,243.64,5.07
0.2527,-0.4886,0.5406,0.6365,40.82,93.78,245.09,4.92
0.2249,-0.5018,0.5546,0.6245,44.33,97.37,244.73,5.52
0.2053,-0.5081,0.5817,0.6011,43.68,102.0,244.51,3.93
0.2439,-0.4668,0.5933,0.6087,32.39,98.38,242.38,4.6
0.347,-0.337,0.5735,0.6612,5.46,83.38,237.81,6.29
0.4027,-0.245,0.5637,0.6783,346.02,75.75,235.95,4.71
0.3796,-0.2829,0.5971,0.6476,350.02,82.68,236.37,2.38
0.3574,-0.3371,0.6169,0.6149,356.97,89.33,238.84,1.82
0.4206,-0.2789,0.6126,0.6083,339.73,84.54,240.1,3.16
0.4618,-0.2271,0.6066,0.6061,326.89,80.33,240.61,3.86
0.3934,-0.307,0.6492,0.574,341.77,91.83,239.45,3.31
0.2091,-0.4677,0.7013,0.4957,19.63,115.3,241.17,3.16
0.0651,-0.5753,0.7087,0.4032,43.64,135.88,249.21,4.71
0.0286,-0.6176,0.6862,0.3832,51.46,141.46,254.84,2.91
0.0702,-0.6145,0.6555,0.4333,52.28,133.2,254.82,4.41
0.0938,-0.6091,0.6314,0.4706,54.11,127.29,254.35,3.14
0.0494,-0.64,0.6159,0.4568,63.18,132.72,258.08,3.77
0.0192,-0.6635,0.581,0.471,74.13,134.13,261.45,3.37
-0.0051,-0.6786,0.557,0.4788,81.93,135.8,264.0,5.79
0.0262,-0.6659,0.5294,0.525,84.36,127.13,261.33,5.79
0.078,-0.641,0.5201,0.559,78.92,118.03,257.58,4.94
0.124,-0.6176,0.5016,0.593,74.89,109.58,254.93,5.43
0.1632,-0.5944,0.4672,0.6339,73.89,100.32,252.51,4.64
0.2145,-0.5364,0.454,0.6783,64.41,89.17,246.85,5.03
0.2735,-0.456,0.4454,0.7203,48.82,78.12,241.5,5.27
0.3411,-0.3891,0.4182,0.7466,34.39,68.67,240.91,4.93
0.3945,-0.3428,0.3961,0.755,23.66,62.55,242.38,5.45
0.415,-0.3086,0.3961,0.7587,16.03,59.95,241.99,6.51
0.4588,-0.2265,0.3634,0.7786,2.2,50.7,241.54,6.06
0.5191,-0.11,0.3096,0.789,343.0,37.55,243.79,5.07
0.5284,-0.0974,0.334,0.7745,336.68,39.3,244.43,5.78
0.4918,-0.1798,0.4113,0.7461,344.34,52.94,242.88,4.13
0.5679,-0.085,0.3457,0.7421,329.09,39.24,249.31,5.86
0.6204,0.0729,0.243,0.7421,311.62,17.23,256.08,5.18
0.6382,0.1525,0.221,0.7216,299.73,8.26,260.75,4.57
0.6685,0.2269,0.1957,0.6807,290.43,357.41,269.78,3.91
0.6959,0.4532,0.0259,0.5565,294.56,314.33,296.79,4.75
0.6452,0.6449,-0.1833,0.3664,332.7,275.96,313.13,4.63
0.5882,0.7104,-0.2609,0.2852,348.71,261.6,314.79,2.67
0.5007,0.7811,-0.2971,0.2258,353.68,246.59,316.27,3.08
0.3633,0.8492,-0.3832,0.0092,30.46,220.3,317.04,2.58
0.2532,0.8634,-0.4141,-0.1378,53.19,201.18,313.81,1.8
0.2136,0.8751,-0.4062,-0.1535,52.49,196.13,313.98,3.06
0.1641,0.8967,-0.3891,-0.1328,42.93,191.84,315.34,2.13
0.0809,0.8954,-0.3992,-0.1799,45.51,180.07,311.95,0.94
0.0232,0.8729,-0.3992,-0.2797,60.89,167.75,307.5,0.23
0.0239,0.8863,-0.3877,-0.2523,55.53,170.03,310.28,1.97
0.0406,0.9078,-0.384,-0.1639,38.38,176.83,313.61,359.26
0.0188,0.8986,-0.4061,-0.1653,36.4,173.93,310.39,359.53
-0.0058,0.8818,-0.4239,-0.2067,42.15,168.53,306.52,359.27
0.0278,0.8916,-0.4242,-0.1559,35.11,175.02,308.34,359.08
0.0648,0.8989,-0.4155,-0.1228,31.89,180.86,310.51,359.06
0.0213,0.8999,-0.391,-0.1918,42.42,173.13,311.74,358.83
-0.0669,0.8876,-0.3853,-0.2432,44.69,160.67,309.22,1.6
-0.0612,0.912,-0.3682,-0.17,30.73,165.78,314.1,359.28
0.006,0.9431,-0.331,-0.0297,6.88,179.52,321.31,357.28
0.0758,0.9281,-0.3313,0.1518,333.22,194.36,319.01,0.44
0.2229,0.8138,-0.2782,0.459,282.92,232.22,302.81,0.66
0.3997,0.4976,-0.1459,0.7559,281.07,306.77,256.12,357.58
0.4303,-0.0179,0.0288,0.902,0.86,3.86,231.02,1.3
0.3315,-0.5742,0.1925,0.7234,89.35,68.0,260.23,1.02
0.1663,-0.9114,0.2256,0.3014,56.63,150.08,324.49,1.4
-0.0553,-0.9566,0.2438,-0.1499,329.89,190.68,329.98,3.54
-0.2143,-0.8163,0.2404,-0.4795,274.35,232.31,305.38,3.12
-0.2844,-0.7108,0.2239,-0.6032,266.22,260.69,284.59,2.7
-0.4054,-0.5654,0.1669,-0.6986,278.21,293.78,267.59,2.75
-0.4932,-0.3414,0.0924,-0.7948,306.31,327.17,251.68,4.24
-0.5221,-0.2456,0.0581,-0.8147,320.31,338.09,249.19,4.86
-0.5216,-0.2774,0.0763,-0.8032,317.06,333.72,251.07,3.9
-0.5269,-0.2018,0.0404,-0.8246,326.25,343.02,247.69,4.84
-0.5267,-0.0235,-0.0499,-0.8483,349.39,3.45,243.51,4.65
-0.4795,0.0277,-0.1024,-0.8711,354.28,11.84,237.37,4.12
-0.4458,-0.1433,-0.0525,-0.882,325.13,357.89,233.95,4.45
-0.4051,-0.428,0.0503,-0.8063,278.99,325.75,246.32,4.22
-0.3322,-0.6108,0.1211,-0.7085,256.56,291.25,266.94,3.31
-0.2494,-0.6557,0.1515,-0.6963,246.24,279.93,268.35,2.05
-0.133,-0.8026,0.2147,-0.5405,251.72,229.51,303.53,1.64
0.0235,-0.9414,0.266,-0.2061,312.78,184.1,327.59,0.84
0.1017,-0.9488,0.2978,-0.0274,347.07,169.76,325.73,1.15
0.112,-0.9199,0.3447,-0.1497,318.71,173.68,320.07,359.29
0.1329,-0.8619,0.3742,-0.3152,280.0,180.51,312.88,359.57
0.1978,-0.8351,0.3747,-0.3508,265.54,174.29,314.17,0.28
0.2744,-0.8258,0.368,-0.3277,264.0,161.52,320.25,358.75
0.2915,-0.807,0.3638,-0.3626,254.25,159.99,321.49,357.7
0.3148,-0.8377,0.3164,-0.3147,266.81,151.46,331.12,356.54
0.3099,-0.8799,0.2593,-0.2499,286.19,148.67,337.86,358.87
0.2834,-0.9145,0.2218,-0.1847,304.77,150.5,340.13,359.02
0.2611,-0.9468,0.1665,-0.0878,330.67,151.26,343.83,359.43
0.2285,-0.9656,0.1132,0.0511,5.39,153.04,345.98,0.43
0.176,-0.9775,0.0941,0.0685,11.58,158.98,347.93,359.57
0.1379,-0.9889,0.0371,0.0414,8.22,163.95,355.13,359.56
0.1098,-0.9923,0.0308,0.0481,10.18,167.18,355.87,0.58
0.0674,-0.9934,0.0914,0.014,1.77,172.15,349.42,1.32
0.0168,-0.9923,0.1207,-0.0241,354.05,178.42,346.17,0.44
-0.0147,-0.9677,0.1961,-0.1578,325.12,185.43,336.25,1.71
-0.0481,-0.9524,0.2416,-0.1797,322.79,190.85,329.75,0.58
-0.0862,-0.9554,0.2388,-0.1508,331.39,194.14,330.15,0.84
-0.1065,-0.9138,0.2718,-0.2824,305.46,203.06,321.2,0.42
-0.2165,-0.8179,0.2305,-0.4806,273.31,232.34,306.43,358.75
-0.2785,-0.7475,0.2051,-0.5672,265.62,252.75,293.64,0.97
-0.2725,-0.8052,0.1883,-0.4918,272.83,239.49,307.94,2.05
-0.2217,-0.8794,0.1885,-0.3768,289.23,220.74,322.29,0.83
-0.1849,-0.9173,0.1853,-0.3002,302.34,210.94,329.02,1.53
-0.2215,-0.9301,0.1544,-0.2489,313.51,212.14,334.37,1.68
-0.2694,-0.9112,0.1307,-0.2829,307.13,219.11,334.13,0.43
-0.2306,-0.8447,0.147,-0.4602,269.59,228.15,319.18,1.11
-0.2146,-0.7376,0.1179,-0.6293,237.26,256.01,292.08,359.59
-0.2122,-0.6427,0.069,-0.7329,228.22,293.73,258.16,0.55
-0.199,-0.6252,0.0431,-0.7534,224.68,304.36,248.54,0.55
-0.1744,-0.6162,0.0385,-0.7671,222.53,310.94,240.29,0.55
-0.1498,-0.5731,0.0176,-0.8055,226.74,329.71,221.25,359.73
-0.1253,-0.485,-0.0112,-0.8654,245.24,349.07,202.47,359.32
-0.0905,-0.4218,-0.0285,-0.9017,260.05,357.78,192.49,358.92
-0.0891,-0.4737,-0.0542,-0.8745,246.12,1.09,191.05,0.27
-0.0905,-0.5494,-0.0539,-0.8289,225.98,358.5,193.46,358.81
-0.0711,-0.4923,-0.0552,-0.8658,241.32,2.87,187.75,0.13
-0.0453,-0.4404,-0.0707,-0.8939,254.94,8.16,181.77,358.93
-0.0255,-0.3658,-0.068,-0.9279,273.96,8.47,179.8,358.39
-0.054,-0.3303,-0.0615,-0.9403,282.23,5.9,184.5,359.08
-0.0917,-0.341,-0.0841,-0.9318,278.77,7.13,188.6,0.13
-0.08,-0.2867,-0.0922,-0.9502,291.95,8.97,186.88,359.05
-0.0267,-0.2547,-0.0921,-0.9623,300.66,10.85,180.3,358.93
0.0139,-0.2302,-0.112,-0.9666,307.54,14.39,174.98,359.46
0.0549,-0.1059,-0.0983,-0.988,337.11,12.12,172.42,359.47
0.0944,0.0572,-0.0801,-0.9907,14.75,8.58,169.66,358.4
0.1111,0.0819,-0.0931,-0.986,21.0,9.69,168.03,357.32
0.106,0.03,-0.1244,-0.9861,9.82,13.88,168.32,357.5
0.1018,0.0211,-0.1102,-0.9885,7.35,12.35,168.64,357.99
0.1099,0.0511,-0.0762,-0.9897,13.55,8.08,167.8,356.51
0.108,-0.2394,-0.1189,-0.9575,308.7,18.06,162.98,356.65
0.0402,-0.6764,-0.1431,-0.7213,210.68,80.45,107.97,359.05
-0.0115,-0.8956,-0.1298,-0.4253,260.21,171.99,20.23,358.14
-0.0694,-0.9895,-0.0838,-0.095,336.96,187.11,8.97,357.53
-0.1077,-0.9744,-0.0304,0.1948,43.82,193.83,6.26,357.7
-0.1579,-0.9303,0.0172,0.3307,76.73,201.11,5.29,357.41
-0.215,-0.8891,0.0516,0.4007,94.58,210.18,6.82,357.14
-0.2464,-0.7845,0.1296,0.5541,137.89,222.58,11.2,355.84
-0.2475,-0.6007,0.2281,0.7251,159.57,10.89,151.42,357.23
-0.2628,-0.486,0.2824,0.7842,131.2,26.99,160.52,354.14
-0.3399,-0.5277,0.2706,0.7299,145.22,6.97,135.18,354.78
-0.4216,-0.5856,0.2341,0.6515,147.68,317.29,81.44,354.52
-0.4473,-0.5175,0.2709,0.6773,141.25,343.19,101.17,353.71
-0.4254,-0.3534,0.3568,0.7529,113.38,25.51,134.98,353.18
-0.4337,-0.2807,0.3819,0.7663,99.2,31.84,136.0,352.93
-0.5083,-0.3657,0.3137,0.7138,114.49,8.08,113.51,352.87
-0.5617,-0.4043,0.2513,0.6767,112.08,348.21,94.32,352.13
-0.5357,-0.2624,0.3221,0.7351,93.93,16.38,115.0,353.19
-0.458,-0.0416,0.4256,0.7793,54.08,44.58,130.37,353.14
-0.4379,0.0375,0.4262,0.7907,36.6,48.12,130.27,351.62
-0.4857,-0.0377,0.3341,0.8069,45.33,33.0,124.71,352.62
-0.5009,-0.0371,0.2575,0.8255,37.23,24.17,121.52,352.11
-0.4417,0.1593,0.2846,0.8358,358.3,38.06,123.99,354.37
-0.3657,0.3785,0.3119,0.7911,316.48,56.03,118.7,353.87
-0.3578,0.3948,0.2411,0.8112,304.21,49.67,119.28,354.09
-0.3923,0.2056,0.0794,0.893,324.5,18.56,129.65,355.01
-0.4077,0.0513,-0.0769,0.9084,342.06,354.32,132.1,353.5
-0.4291,0.208,-0.0937,0.874,307.27,0.94,127.48,354.02
-0.4699,0.4563,-0.0501,0.754,265.34,31.41,102.09,355.72
-0.4951,0.5259,-0.0931,0.6853,251.22,42.48,85.72,355.88
-0.487,0.4106,-0.2401,0.7326,246.69,5.02,110.06,355.84
-0.4623,0.2448,-0.3839,0.7609,266.65,328.57,131.28,356.55
-0.5025,0.2434,-0.4149,0.7184,259.87,326.8,125.91,354.21
-0.6042,0.3798,-0.3422,0.6112,237.24,4.88,87.77,354.91
-0.686,0.5033,-0.2455,0.4646,252.88,51.11,41.08,356.96
-0.6985,0.5023,-0.2912,0.4184,248.39,54.58,31.29,356.55
-0.6391,0.394,-0.4668,0.4674,210.44,14.85,60.98,356.96
-0.6326,0.3093,-0.5442,0.4561,207.84,334.09,91.98,354.76
-0.7848,0.3386,-0.4073,0.3218,241.99,31.53,26.44,354.39
-0.9185,0.3386,-0.1751,0.1054,313.72,39.52,4.67,355.94
-0.9566,0.262,-0.1094,-0.0652,339.83,31.58,349.34,353.64
-0.9133,0.1767,-0.336,-0.1477,291.69,30.66,332.0,349.77
-0.7328,0.1223,-0.6406,-0.1942,233.91,70.76,283.25,349.4
-0.6222,0.0717,-0.7233,-0.2908,241.74,96.34,245.15,348.76
-0.6965,-0.0626,-0.5697,-0.4317,244.09,49.71,267.64,347.01
-0.7409,-0.2594,-0.3323,-0.5229,260.44,356.73,291.09,348.36
-0.6663,-0.3449,-0.2539,-0.6105,261.18,346.71,281.14,345.07
-0.4817,-0.2502,-0.3868,-0.7455,263.57,30.26,231.93,342.65
-0.1732,-0.0336,-0.5648,-0.8061,331.07,68.19,194.44,342.14
