,time,acc_X,acc_Y,acc_Z,gyro_X,gyro_Y,gyro_Z,heading
0,0.9995,-0.0262,0.0106,0.0142,357.65,3.02,358.34,319.96
1,0.9957,-0.0858,0.0238,0.0251,355.05,9.91,356.9,319.96
2,0.9968,-0.0728,0.0158,0.0302,356.9,8.4,356.42,319.64
3,0.9963,-0.0702,0.0276,0.0407,354.35,8.18,355.12,319.64
4,0.9961,-0.0786,0.0212,0.0353,355.8,9.1,355.77,319.64
5,0.999,-0.0427,-0.01,0.0129,2.42,4.89,358.57,322.01
6,0.9998,-0.0177,-0.0118,0.004,2.72,2.02,359.56,321.78
7,0.9973,0.0588,-0.0446,-0.0057,10.3,353.27,0.36,319.67
8,0.9839,0.1637,-0.0688,-0.021,16.35,341.18,1.09,320.06
9,0.9018,0.2979,-0.0971,-0.2978,41.29,329.18,30.8,318.51
10,0.7593,0.3775,-0.0457,-0.5281,55.81,323.55,60.28,317.1
11,0.6682,0.4535,0.0802,-0.5843,50.02,309.45,70.38,316.55
12,0.5781,0.4906,0.1706,-0.6293,49.7,300.48,80.5,318.42
13,0.5727,0.5254,0.1637,-0.6076,53.63,296.21,76.52,322.06
14,0.5744,0.5505,0.1523,-0.5863,56.15,293.19,72.45,320.51
15,0.5315,0.598,0.1502,-0.5808,64.68,286.48,70.63,320.54
16,0.5898,0.6255,0.1252,-0.4952,56.3,282.2,57.16,321.24
17,0.635,0.6516,0.0117,-0.4148,63.43,280.2,39.59,319.09
18,0.6356,0.6433,0.0445,-0.4245,58.63,281.13,43.19,318.09
19,0.6363,0.6317,0.0529,-0.4396,58.42,283.0,45.86,318.38
20,0.6621,0.6209,0.0034,-0.4196,62.2,285.51,40.83,320.51
21,0.7748,0.5584,-0.2144,-0.2044,68.19,290.08,5.35,319.4
22,0.8153,0.4518,-0.3603,0.0365,67.35,293.52,332.44,318.19
23,0.7846,0.3168,-0.4795,0.2325,74.47,295.24,302.87,316.64
24,0.6498,0.0814,-0.6056,0.452,91.04,291.19,258.3,314.67
25,0.5088,-0.0658,-0.6375,0.5748,92.83,285.01,226.62,311.73
26,0.4205,-0.1311,-0.648,0.6213,90.13,280.25,209.95,310.14
27,0.3544,-0.2061,-0.6608,0.6287,93.36,273.48,194.63,311.04
28,0.4312,-0.0946,-0.655,0.6132,85.84,279.75,213.57,310.06
29,0.5756,0.0402,-0.6646,0.4747,93.26,279.5,240.88,311.36
30,0.6295,0.0372,-0.6929,0.3496,115.62,273.97,247.39,310.84
31,0.7042,0.1382,-0.653,0.2419,117.06,282.04,273.3,313.1
32,0.7297,0.1963,-0.6227,0.2029,112.03,285.29,284.73,313.46
33,0.7223,0.187,-0.6295,0.217,111.82,284.21,281.67,313.05
34,0.7252,0.1987,-0.6177,0.2304,107.09,285.42,282.71,312.99
35,0.7545,0.2087,-0.5882,0.2032,106.78,291.75,292.22,312.17
36,0.7849,0.2418,-0.5498,0.1526,104.22,296.98,304.62,315.18
37,0.7901,0.2943,-0.5205,0.1347,96.02,295.21,309.09,314.31
38,0.7924,0.3393,-0.4858,0.1447,84.39,293.7,311.01,314.3
39,0.763,0.3698,-0.5008,0.1741,78.9,286.93,304.54,314.34
40,0.7441,0.2229,-0.5783,0.2493,97.09,290.5,288.21,311.39
41,0.7818,0.1604,-0.572,0.1897,112.9,302.18,299.69,312.83
42,0.8039,0.1141,-0.5658,0.1438,122.51,313.95,311.47,315.18
43,0.8108,0.0996,-0.5651,0.1157,126.58,319.46,318.11,311.63
44,0.836,0.0739,-0.5356,0.0935,123.7,331.68,330.04,315.92
45,0.8602,0.0247,-0.507,0.0492,120.88,349.2,347.15,316.94
46,0.8688,0.0213,-0.4937,0.0319,117.85,352.37,351.49,314.27
47,0.8773,0.042,-0.4772,0.0281,113.22,349.47,350.65,315.54
48,0.8847,0.0478,-0.4632,0.0239,109.61,349.33,351.36,314.82
49,0.8782,0.0776,-0.4713,0.0246,110.97,343.65,348.15,316.97
50,0.8658,0.1577,-0.4736,0.0343,108.05,328.64,339.17,315.7
51,0.8404,0.2293,-0.4892,0.0428,106.76,314.24,330.22,316.51
52,0.8202,0.2671,-0.5048,0.0345,108.09,306.32,326.23,314.66
53,0.815,0.305,-0.4927,0.0073,105.99,303.07,328.72,313.79
54,0.8614,0.2668,-0.4311,-0.0311,98.79,318.32,344.28,314.83
55,0.8789,0.2578,-0.3993,-0.0408,92.59,322.5,348.8,314.66
56,0.8785,0.2707,-0.3912,-0.0429,90.57,321.08,348.82,314.83
57,0.8924,0.2467,-0.3759,-0.0399,87.34,325.45,350.92,316.32
58,0.9345,0.1573,-0.312,-0.0674,74.37,341.56,1.99,316.96
59,0.949,0.1061,-0.2758,-0.11,66.3,350.32,10.33,315.18
60,0.9745,0.0563,-0.1625,-0.1443,38.89,356.18,16.19,317.16
61,0.9764,0.025,-0.1486,-0.1545,34.67,359.82,17.95,317.63
62,0.9792,-0.0183,-0.1216,-0.1616,26.86,4.43,19.26,317.78
63,0.9813,-0.0443,-0.1016,-0.1572,21.38,6.95,18.85,317.94
64,0.9845,-0.0364,-0.0803,-0.1516,16.91,5.56,17.92,318.39
65,0.9741,-0.1592,-0.0445,-0.1544,4.31,18.91,18.37,319.45
66,0.9648,-0.1979,-0.0946,-0.1451,14.38,24.37,18.66,321.65
67,0.9738,-0.1611,-0.0703,-0.1442,10.39,19.6,17.75,321.42
68,0.9433,-0.2763,-0.0648,-0.1722,3.11,32.94,21.15,321.08
69,0.9303,-0.2919,-0.1656,-0.1483,25.6,37.39,22.46,321.22
70,0.9488,-0.2138,-0.2125,-0.0943,42.56,28.59,16.84,320.39
71,0.9482,-0.2202,-0.2089,-0.0934,41.6,29.24,16.73,319.7
72,0.9297,-0.2546,-0.2455,-0.1032,47.65,34.95,20.26,322.63
73,0.9371,-0.1854,-0.2805,-0.0934,58.83,27.33,18.69,320.91
74,0.94,-0.1964,-0.2789,0.0072,63.63,25.46,6.49,317.54
75,0.9364,-0.1915,-0.2903,0.0466,68.31,23.63,1.66,319.12
76,0.9466,-0.1484,-0.2863,-0.0046,65.46,19.7,6.4,318.74
77,0.9485,-0.1583,-0.2743,0.0099,63.13,20.24,4.58,317.66
78,0.9585,-0.1302,-0.253,0.0167,58.6,16.05,2.22,319.05
79,0.9597,-0.1604,-0.2305,0.0139,53.09,19.69,3.03,318.37
80,0.9571,-0.1788,-0.2278,0.0115,52.23,22.04,3.8,313.4
81,0.9695,-0.1304,-0.2071,0.0102,47.69,15.78,2.15,319.18
82,0.9706,-0.1653,-0.1752,-0.0024,39.67,20.0,3.82,317.3
83,0.9653,-0.1797,-0.1896,-0.0032,42.81,21.96,4.58,319.18
84,0.973,-0.1306,-0.1897,0.0151,43.82,15.52,1.24,319.18
85,0.9789,-0.1133,-0.1688,0.0215,39.18,13.17,359.76,318.18
86,0.9714,-0.0906,-0.2138,0.0502,50.23,9.83,356.28,318.26
87,0.9714,-0.0629,-0.2177,0.071,51.19,5.81,352.96,316.81
88,0.9695,-0.0479,-0.2314,0.0646,54.11,4.06,353.35,319.45
89,0.9632,-0.0476,-0.2585,0.0558,60.45,4.17,354.49,316.51
90,0.9659,-0.0678,-0.2445,0.0512,57.29,6.93,355.71,315.73
91,0.9579,-0.0593,-0.2756,0.0537,64.59,5.71,355.23,317.9
92,0.9525,-0.0417,-0.2941,0.0666,68.92,2.8,352.87,318.16
93,0.9545,-0.0421,-0.286,0.0736,67.04,2.63,351.97,317.12
94,0.9437,-0.0169,-0.3192,0.0851,74.51,358.39,349.15,316.44
95,0.9428,-0.0225,-0.3209,0.087,75.04,359.04,349.13,315.18
96,0.9488,-0.0324,-0.3068,0.0672,71.83,1.43,352.36,316.07
97,0.9573,-0.0582,-0.2779,0.0539,65.15,5.55,355.17,317.33
98,0.9645,-0.0665,-0.2501,0.0524,58.61,6.72,355.54,316.94
99,0.9708,-0.0711,-0.2244,0.046,52.49,7.52,356.33,318.37
100,0.9747,-0.0585,-0.2112,0.0444,49.27,6.01,356.1,317.46
101,0.979,-0.0344,-0.1928,0.0558,44.84,2.84,354.04,317.76
102,0.9812,-0.0045,-0.1805,0.0674,41.58,359.05,351.96,313.8
103,0.985,0.0204,-0.1533,0.0769,34.79,356.16,350.49,318.62
104,0.9874,0.0329,-0.1273,0.0879,28.43,354.83,349.18,317.03
105,0.9888,0.0245,-0.1121,0.0953,25.06,355.9,348.53,316.88
106,0.9888,0.0355,-0.0979,0.1068,21.45,354.68,347.18,319.18
107,0.9867,0.0425,-0.097,0.1232,20.84,353.7,345.19,318.62
108,0.9839,0.0438,-0.1122,0.1324,24.14,353.19,343.96,318.72
109,0.9814,0.056,-0.1218,0.1376,25.85,351.53,343.08,316.08
110,0.9794,0.0708,-0.1211,0.1453,25.02,349.74,342.0,316.44
111,0.9804,0.0593,-0.1058,0.1555,21.79,351.26,341.14,316.05
112,0.9795,0.0474,-0.1032,0.1662,21.48,352.57,340.04,315.55
113,0.9785,0.0452,-0.1118,0.1671,23.52,352.61,339.86,315.53
114,0.9794,0.0459,-0.1068,0.1652,22.38,352.67,340.13,316.66
115,0.9767,0.0394,-0.1052,0.1831,22.03,353.25,338.11,317.29
116,0.9718,0.037,-0.111,0.2047,23.13,353.12,335.52,319.12
117,0.9664,0.0569,-0.118,0.221,23.41,350.47,333.26,317.39
118,0.9573,0.0937,-0.1401,0.2349,25.92,345.42,330.76,315.18
119,0.9432,0.1473,-0.1742,0.2415,29.84,338.0,328.36,316.46
120,0.9393,0.1471,-0.1623,0.2641,26.26,338.17,326.05,312.48
121,0.9284,0.1516,-0.1882,0.2823,30.59,336.29,322.94,315.92
122,0.9181,0.1623,-0.1967,0.3034,30.46,334.37,319.94,315.18
123,0.9108,0.1841,-0.2011,0.31,29.2,331.61,318.69,314.26
124,0.8804,0.2525,-0.2436,0.3191,31.06,321.48,314.7,313.91
125,0.8589,0.3006,-0.2356,0.3411,23.04,316.29,312.05,313.39
126,0.8336,0.337,-0.221,0.3776,13.09,312.81,308.4,311.48
127,0.8205,0.3588,-0.2194,0.3871,9.45,310.42,307.31,312.08
128,0.8308,0.3281,-0.1932,0.406,6.26,315.33,306.62,311.86
129,0.8426,0.285,-0.1844,0.4181,8.3,320.49,305.73,312.03
130,0.8915,0.1423,-0.2042,0.3785,29.7,335.01,310.68,311.97
131,0.8853,0.0939,-0.2345,0.3905,39.97,338.17,308.5,312.22
132,0.8779,0.1397,-0.2253,0.3987,33.01,333.69,307.27,317.01
133,0.88,0.1181,-0.2411,0.3919,38.75,335.13,307.68,315.18
134,0.8848,0.0974,-0.2439,0.3849,41.78,337.34,308.75,314.63
135,0.8897,0.0966,-0.2064,0.3955,33.83,339.49,308.99,312.51
136,0.8977,0.0953,-0.176,0.3926,27.9,341.42,310.47,316.49
137,0.8829,0.1518,-0.1838,0.4045,23.28,334.82,308.16,315.56
138,0.8543,0.2034,-0.1603,0.4507,10.38,330.39,303.0,313.92
139,0.8406,0.2094,-0.1537,0.4754,6.8,330.07,300.11,313.55
140,0.8421,0.1948,-0.1404,0.4828,5.55,332.33,299.66,315.18
141,0.872,0.1342,-0.1662,0.4405,19.76,337.29,304.41,312.03
142,0.8792,0.1096,-0.1855,0.425,26.94,338.89,305.88,313.84
143,0.9025,0.0413,-0.1488,0.4021,27.23,348.48,310.59,313.71
144,0.8916,0.021,-0.1241,0.4349,23.42,351.46,307.12,316.5
145,0.8587,0.0919,-0.1217,0.4893,13.69,343.81,299.67,316.49
146,0.8443,0.0783,-0.1001,0.5206,10.05,346.27,296.07,314.64
147,0.8261,0.0537,-0.165,0.5361,24.83,344.22,292.31,311.39
148,0.826,0.0609,-0.2334,0.5094,37.76,339.05,293.15,314.25
149,0.7792,0.0141,-0.3211,0.5382,58.04,335.14,284.2,313.67
150,0.6804,0.1516,-0.4422,0.5644,51.01,308.59,268.21,313.83
151,0.6354,0.1677,-0.5037,0.5607,53.76,299.29,261.21,312.58
152,0.5729,0.2225,-0.5226,0.5909,39.25,292.13,254.96,312.18
153,0.616,0.2186,-0.5235,0.5465,47.91,292.95,260.84,309.07
154,0.5832,0.3293,-0.5287,0.5215,31.71,283.48,263.86,311.53
155,0.6349,0.3147,-0.5188,0.4782,41.93,286.39,270.26,311.66
156,0.6401,0.295,-0.5126,0.4905,43.04,288.84,269.6,309.38
157,0.5983,0.3207,-0.5255,0.5129,34.9,284.7,265.28,309.54
158,0.5186,0.3688,-0.5388,0.5521,17.43,278.58,258.91,308.47
159,0.5274,0.4245,-0.4791,0.5586,3.57,280.4,265.22,308.17
160,0.5543,0.4669,-0.4158,0.5495,354.02,282.62,272.89,307.87
161,0.6617,0.4189,-0.4098,0.4677,17.31,288.46,283.25,312.03
162,0.7946,0.0819,-0.5244,0.2948,103.45,314.83,296.48,310.01
163,0.7367,-0.2024,-0.6181,0.1851,160.56,24.25,352.33,312.66
164,0.7002,-0.2243,-0.617,0.2806,163.71,346.88,304.94,316.7
165,0.6609,-0.2305,-0.6249,0.3458,160.4,311.51,263.23,314.13
166,0.5483,-0.3596,-0.6565,0.3729,162.31,218.33,155.73,314.76
167,0.3981,-0.3959,-0.6912,0.4549,131.18,229.36,153.38,312.25
168,0.3504,-0.3632,-0.7064,0.4963,117.66,239.63,161.38,314.23
169,0.2466,-0.4309,-0.7054,0.5058,103.23,233.81,144.74,311.33
170,0.1497,-0.4515,-0.7074,0.5228,86.3,235.95,138.63,312.9
171,0.0723,-0.4766,-0.6861,0.5449,76.43,239.76,132.94,312.46
172,-0.0118,-0.504,-0.6334,0.5871,70.45,247.67,127.01,309.81
173,-0.0409,-0.4714,-0.5905,0.6538,69.23,260.07,132.14,311.84
174,0.0315,-0.4567,-0.5663,0.6853,82.86,265.51,140.77,307.54
175,0.07,-0.5236,-0.5621,0.6363,96.33,254.31,131.49,305.74
176,0.1094,-0.4693,-0.6158,0.6234,92.09,253.36,140.5,310.87
177,0.1883,-0.4375,-0.6362,0.607,100.82,252.45,149.02,315.96
178,0.2687,-0.4631,-0.6344,0.5575,118.04,242.96,145.97,307.94
179,0.2504,-0.4517,-0.5781,0.6317,118.68,261.38,156.19,313.26
180,0.2882,-0.4081,-0.5378,0.6791,119.59,280.12,174.58,307.76
181,0.3273,-0.4533,-0.538,0.6308,135.06,271.52,168.72,308.98
182,0.3306,-0.5318,-0.5192,0.5816,148.27,247.42,142.12,306.87
183,0.3417,-0.5778,-0.4692,0.5737,159.31,233.01,123.32,316.68
184,0.3304,-0.4956,-0.3999,0.6967,145.39,309.46,192.43,314.42
185,0.3464,-0.5099,-0.3172,0.7207,145.38,339.54,216.21,310.56
186,0.3668,-0.5903,-0.261,0.67,158.51,26.54,259.51,313.23
187,0.3974,-0.6159,-0.2085,0.6475,148.88,54.88,286.12,310.65
188,0.4256,-0.642,-0.1859,0.61,140.62,71.57,303.63,310.56
189,0.4672,-0.6252,-0.1773,0.5995,132.5,67.32,302.82,309.09
190,0.4992,-0.6061,-0.2008,0.5857,131.17,63.49,304.34,314.73
191,0.4931,-0.6216,-0.2109,0.5709,133.21,69.64,310.75,313.41
192,0.519,-0.5252,-0.2701,0.618,136.69,34.92,284.15,311.36
193,0.5675,-0.4028,-0.2784,0.6619,116.27,9.66,266.6,311.36
194,0.5884,-0.3597,-0.2777,0.6688,107.78,5.05,265.25,307.09
195,0.6031,-0.3646,-0.2598,0.6602,105.28,9.17,269.36,307.16
196,0.6553,-0.2148,-0.2654,0.6737,79.19,354.33,266.37,306.8
197,0.6168,-0.002,-0.2706,0.7391,39.37,335.02,255.28,308.99
198,0.5777,-0.0277,-0.119,0.8071,21.0,350.63,250.32,309.6
199,0.5527,-0.2452,0.0884,0.7916,33.77,25.44,253.69,303.99
200,0.4811,-0.3817,0.2267,0.7559,42.08,49.53,254.74,305.46
201,0.4415,-0.2676,0.294,0.8044,19.68,46.04,241.71,308.71
202,0.3874,-0.2446,0.3762,0.8053,11.76,53.1,234.32,308.61
203,0.3745,-0.3046,0.397,0.7806,20.53,59.52,237.14,305.11
204,0.3847,-0.2201,0.3137,0.8397,14.73,44.58,232.25,308.61
205,0.4683,-0.1535,0.2098,0.8444,7.2,29.94,238.99,308.14
206,0.4074,-0.2907,0.2143,0.8388,36.49,38.9,238.3,310.53
207,0.2896,-0.4182,0.1673,0.8445,75.1,41.45,232.51,313.01
208,0.264,-0.4592,0.1461,0.8355,87.3,42.26,232.66,314.5
209,0.2902,-0.4174,0.122,0.8525,79.71,35.91,231.0,316.56
210,0.2522,-0.3403,0.0558,0.9041,71.92,19.68,217.61,317.77
211,0.2525,-0.2955,0.0343,0.9207,63.58,14.46,214.81,319.05
212,0.2576,-0.2918,0.0146,0.921,64.0,12.06,214.72,316.64
213,0.2533,-0.287,-0.0397,0.923,66.72,4.95,212.17,318.66
214,0.2985,-0.2248,-0.0446,0.9265,52.6,3.3,216.49,316.04
215,0.4037,-0.1342,-0.1167,0.8974,39.15,353.84,227.38,312.6
216,0.4027,-0.001,-0.2142,0.8899,20.08,337.28,226.67,314.44
217,0.5132,0.2374,-0.1462,0.8117,332.77,330.33,248.22,309.62
218,0.6223,0.365,0.0162,0.6922,296.59,329.5,272.77,308.6
219,0.697,0.3963,-0.0112,0.5975,305.49,320.46,288.75,306.58
220,0.7118,0.4162,-0.1385,0.5485,329.92,309.57,291.88,305.54
221,0.6985,0.4974,-0.3017,0.4167,0.81,288.85,298.08,312.81
222,0.6422,0.5756,-0.4779,0.1667,49.91,262.42,302.53,302.63
223,0.5814,0.5282,-0.5941,-0.1737,121.9,237.11,298.79,304.0
224,0.5472,0.3743,-0.5937,-0.4561,164.74,83.52,155.61,298.91
225,0.433,0.2412,-0.5889,-0.6384,109.74,70.71,152.15,294.54
226,0.4433,0.0702,-0.4866,-0.7495,64.91,52.25,135.04,300.14
227,0.4973,0.132,-0.402,-0.7574,73.71,36.65,126.02,297.98
228,0.5316,0.084,-0.3145,-0.7819,55.51,27.06,118.38,297.45
229,0.5098,-0.0071,-0.2999,-0.8063,34.23,30.9,120.15,298.36
230,0.4381,-0.1656,-0.3369,-0.8168,2.82,44.08,124.16,294.27
231,0.4096,-0.2617,-0.1837,-0.8544,325.49,33.59,123.53,296.75
232,0.2924,-0.1816,0.2508,-0.9048,303.24,336.72,150.14,290.77
233,0.2409,-0.2268,0.5494,-0.7672,284.41,291.79,171.23,297.26
234,0.137,-0.1788,0.5502,-0.8041,308.01,291.58,178.49,306.87
235,0.0489,-0.3031,0.572,-0.7606,297.75,280.9,198.55,308.25
236,0.014,-0.3478,0.5397,-0.7665,293.5,282.12,205.03,307.87
237,-0.057,-0.2088,0.3252,-0.9205,319.36,318.4,194.87,312.12
238,-0.1139,-0.0596,-0.0204,-0.9915,345.89,1.55,193.01,309.47
239,0.0388,0.0288,-0.4995,-0.865,10.17,59.91,177.8,306.11
240,0.0572,0.043,-0.8739,-0.4809,16.25,122.44,181.17,305.71
241,-0.2006,0.1799,-0.9375,-0.2203,325.46,149.46,206.47,301.02
242,-0.4417,0.4746,-0.7402,0.178,249.25,164.08,253.73,300.81
243,-0.3091,0.6888,-0.392,0.5256,209.77,176.95,303.06,302.89
244,-0.2381,0.3691,0.0301,0.8977,279.15,17.57,143.77,307.32
245,-0.2153,-0.0253,0.2987,0.9294,20.24,33.57,156.98,309.64
246,0.0129,0.0194,0.4012,0.9157,354.75,47.31,180.46,309.63
247,0.249,0.2334,0.3987,0.8512,286.85,44.46,197.23,313.41
248,0.3388,0.6377,0.1128,0.6825,217.52,300.09,277.7,311.78
249,0.7511,0.624,-0.2054,0.0644,26.39,278.09,338.74,309.49
250,0.7766,0.2877,-0.1904,-0.5271,73.6,342.1,62.33,311.19
251,0.8966,0.118,-0.272,-0.3288,68.86,357.73,39.57,313.64
252,0.8567,0.0255,-0.4497,-0.2513,103.15,17.06,40.99,310.48
253,0.7435,-0.0904,-0.5981,-0.285,113.85,60.58,77.08,309.45
254,0.7764,0.0814,-0.5104,-0.3606,116.69,27.43,65.34,311.19
255,0.9607,0.2609,-0.0927,-0.0206,21.77,329.57,359.49,310.78
256,0.9216,0.351,0.1052,0.1277,327.06,319.7,350.31,310.17
257,0.904,0.3837,-0.1887,-0.0054,40.39,312.52,351.73,311.39
258,0.9126,0.3547,-0.2033,-0.0011,43.65,315.81,351.19,309.86
259,0.8654,0.3889,-0.3152,0.0207,63.94,306.01,340.65,310.15
260,0.8196,0.344,-0.4568,-0.0355,101.29,303.07,336.19,310.09
261,0.7921,0.2962,-0.5174,-0.1311,127.6,310.92,347.06,307.76
262,0.6979,0.2573,-0.6483,-0.1624,162.63,280.28,314.91,308.62
263,0.2324,0.1975,-0.9449,-0.1191,58.17,171.23,201.33,304.88
264,-0.3084,0.2695,-0.9123,-0.0009,291.59,168.29,216.53,305.15
265,-0.5709,0.3328,-0.7503,-0.016,244.4,130.71,256.26,302.67
266,-0.496,0.3753,-0.783,-0.0082,259.19,142.83,249.2,301.44
267,-0.4518,0.3123,-0.8347,-0.039,266.24,149.46,234.53,302.35
268,-0.4835,0.2594,-0.8281,-0.1144,264.28,138.99,233.64,303.29
269,-0.3748,0.2492,-0.8527,-0.2653,299.08,132.14,226.36,300.68
270,-0.3325,0.174,-0.8197,-0.4327,313.52,116.11,218.58,300.71
271,-0.0296,0.4981,-0.8062,-0.3178,31.19,145.76,238.59,302.88
272,0.3039,0.7714,-0.5589,-0.0163,42.79,208.95,293.73,303.48
273,0.2774,0.8682,-0.3779,0.1625,351.68,217.31,311.56,308.05
274,0.1413,0.9552,-0.1198,0.2308,311.95,200.86,341.21,309.32
275,0.0397,0.9822,0.0031,0.1837,317.67,184.72,359.48,312.6
276,-0.02,0.9814,-0.0625,-0.1805,41.19,176.22,352.03,311.68
277,-0.0875,0.8185,-0.0638,-0.5641,131.67,148.27,330.23,310.47
278,-0.1269,0.8777,0.0459,-0.4598,109.92,161.66,356.39,307.04
279,-0.1676,0.8868,0.1196,-0.4137,101.4,161.76,6.67,310.07
280,-0.2027,0.8064,0.1424,-0.537,134.97,152.98,1.8,308.44
281,-0.1977,0.5825,0.1154,-0.7799,145.2,9.69,215.57,308.85
282,-0.056,0.5119,0.2363,-0.824,120.94,317.65,162.33,308.43
283,-0.0048,0.4934,0.3043,-0.8148,107.61,303.72,150.31,307.98
284,-0.1408,0.6875,0.4434,-0.5576,126.14,221.63,91.9,309.32
285,-0.3154,0.7845,0.4119,-0.3398,104.93,159.34,45.14,311.3
286,-0.3976,0.8505,0.3406,0.0507,21.28,133.67,39.08,311.24
287,-0.3975,0.7511,0.1968,0.4891,289.35,104.6,57.01,312.39
288,-0.378,0.5661,0.1038,0.7252,264.11,59.74,96.28,314.86
289,-0.3236,0.4152,0.0185,0.85,272.13,24.63,128.25,317.35
290,-0.2848,0.3114,-0.0893,0.9022,284.43,1.17,144.57,318.32
291,-0.2414,0.2998,-0.1788,0.9055,282.01,346.69,154.88,319.36
292,-0.2542,0.3968,-0.2219,0.8536,255.57,343.21,155.1,318.95
293,-0.2362,0.4374,-0.2886,0.8183,243.1,329.49,165.15,318.76
294,-0.1318,0.4361,-0.3785,0.8057,253.24,303.95,191.38,320.39
295,0.0446,0.4568,-0.3728,0.8065,270.6,295.39,215.48,319.69
296,0.1282,0.6387,-0.341,0.6778,257.79,265.58,256.05,321.56
297,0.0499,0.8943,-0.2628,0.3588,284.02,200.64,320.08,322.44
298,-0.0393,0.9928,-0.109,0.0311,351.94,175.91,347.62,321.34
299,-0.1478,0.9816,-0.0755,-0.0945,18.79,162.03,349.72,319.84
300,-0.2425,0.9577,-0.1003,-0.1183,20.5,150.25,345.31,320.52
301,-0.2497,0.9114,-0.1956,-0.2622,44.69,142.91,328.19,319.59
302,-0.2192,0.8416,-0.2854,-0.4027,67.11,134.06,307.97,316.15
303,-0.2181,0.7471,-0.3931,-0.4897,68.14,120.89,284.79,316.18
304,-0.2306,0.654,-0.413,-0.5904,71.15,103.97,267.3,316.17
305,-0.1956,0.6409,-0.3534,-0.6527,88.6,95.73,261.82,312.55
306,-0.1825,0.6947,-0.3627,-0.5938,87.68,108.45,272.52,314.7
307,-0.2228,0.678,-0.3883,-0.583,76.27,106.31,271.36,316.18
308,-0.2363,0.6147,-0.4116,-0.63,70.89,96.66,260.63,313.93
309,-0.2283,0.4977,-0.4678,-0.6938,56.97,85.63,242.9,314.42
310,-0.2559,0.4714,-0.5,-0.6799,45.31,86.55,242.6,313.26
311,-0.2818,0.4925,-0.5108,-0.6459,40.77,90.43,247.67,314.7
312,-0.2995,0.5848,-0.4864,-0.576,44.95,99.79,261.5,314.7
313,-0.3705,0.6051,-0.5131,-0.4831,23.58,105.32,270.4,315.14
314,-0.4975,0.5106,-0.5736,-0.4035,341.73,100.47,270.95,313.71
315,-0.6131,0.3833,-0.5351,-0.4369,322.52,81.89,272.76,312.56
316,-0.6508,0.324,-0.5308,-0.4357,311.78,75.62,273.58,313.29
317,-0.7756,0.1845,-0.4886,-0.3546,282.34,54.31,290.37,313.0
318,-0.8162,0.1024,-0.4932,-0.283,263.31,42.18,302.11,313.42
319,-0.8513,0.1363,-0.3901,-0.3233,289.65,36.34,306.53,314.41
320,-0.8495,0.2579,-0.2075,-0.4108,343.82,37.93,305.6,311.7
321,-0.8411,0.2494,-0.128,-0.4626,1.77,32.55,302.63,313.0
322,-0.8684,0.1055,-0.1285,-0.4671,345.67,17.8,302.33,311.22
323,-0.8838,-0.0999,-0.1787,-0.4207,312.86,358.36,309.43,311.22
324,-0.8708,-0.2221,-0.112,-0.424,314.91,341.58,311.78,310.42
325,-0.8847,-0.1476,-0.1208,-0.4254,320.34,350.3,310.34,309.63
326,-0.9115,-0.009,-0.227,-0.3429,310.33,8.83,316.82,309.46
327,-0.8779,-0.0087,-0.4387,-0.1918,258.64,13.98,328.7,309.46
328,-0.9008,-0.1689,-0.3792,-0.1274,266.87,342.43,351.51,314.04
329,-0.8707,-0.3722,-0.2963,-0.1246,285.01,313.63,0.25,312.68
330,-0.8242,-0.5137,-0.1506,-0.1847,308.03,298.35,350.41,312.69
331,-0.732,-0.594,0.0086,-0.3335,314.88,288.57,327.33,310.92
332,-0.6522,-0.5736,0.0468,-0.4934,299.33,293.03,306.11,307.47
333,-0.6394,-0.4927,0.03,-0.5896,294.29,307.62,291.14,308.22
334,-0.5216,-0.4692,0.104,-0.7049,292.85,310.22,268.94,307.24
335,-0.1812,-0.4322,0.2677,-0.8419,281.8,308.5,223.73,305.51
336,0.0886,-0.4242,0.4061,-0.8045,262.04,298.22,197.92,300.17
337,0.2351,-0.3854,0.4554,-0.7673,252.66,299.11,179.05,297.9
338,0.1287,-0.2165,0.5746,-0.7787,301.97,286.33,183.17,297.91
339,-0.0249,-0.168,0.6384,-0.7508,334.52,277.57,194.96,296.34
340,-0.136,-0.1437,0.7044,-0.6817,359.5,268.07,202.82,299.74
341,-0.2296,-0.1473,0.7812,-0.5615,22.29,254.39,209.82,298.43
342,-0.2343,-0.2639,0.811,-0.4667,15.37,242.69,220.74,299.93
343,-0.3991,-0.3393,0.7258,-0.4458,32.14,252.81,242.0,302.47
344,-0.3528,-0.3353,0.769,-0.4144,30.7,244.99,236.93,304.27
345,-0.1345,-0.2772,0.9178,-0.2505,12.4,212.51,215.42,303.55
346,0.0165,-0.1596,0.9867,0.0273,357.26,176.61,198.41,302.59
347,0.2167,-0.101,0.9308,0.2764,319.33,143.45,199.16,300.83
348,0.422,0.0813,0.8297,0.3563,261.39,126.73,194.73,301.24
349,0.5894,0.2993,0.6096,0.4375,202.67,66.73,230.13,295.7
350,0.7127,0.2968,0.3597,0.524,249.08,355.34,289.8,293.78
351,0.7062,0.4148,0.2109,0.5336,264.45,327.52,300.56,295.15
352,0.7245,0.3562,0.2373,0.5402,266.44,337.7,296.33,291.3
353,0.7014,0.3174,0.3126,0.5565,255.31,350.83,287.66,291.08
354,0.634,0.1679,0.3401,0.6739,277.78,19.02,259.31,295.04
355,0.6244,0.0897,0.3263,0.704,295.49,24.26,256.02,294.24
356,0.6427,-0.0578,0.4551,0.6136,298.14,47.53,258.77,291.63
357,0.6285,-0.2045,0.4553,0.5965,321.67,57.91,262.32,296.28
358,0.7467,-0.2807,0.4035,0.4482,318.91,56.5,286.93,295.41
359,0.8552,-0.2508,0.368,0.265,300.46,45.97,312.7,299.63
360,0.8879,-0.2541,0.3205,0.2107,304.96,41.39,322.73,300.65
361,0.9027,-0.2171,0.2976,0.2225,307.72,35.74,323.74,299.81
362,0.89,-0.2845,0.318,0.1606,303.31,43.74,327.97,298.61
363,0.8305,-0.3993,0.3546,0.1581,304.86,61.01,321.99,297.17
364,0.7774,-0.4522,0.394,0.1895,307.64,71.78,313.49,302.89
365,0.7379,-0.5068,0.3614,0.261,328.82,76.48,308.73,299.03
366,0.7444,-0.4711,0.2661,0.3913,356.86,65.5,303.53,301.98
367,0.7971,-0.2402,0.2223,0.5074,347.29,37.76,292.87,304.66
368,0.7721,0.1324,0.0985,0.6137,323.32,354.95,283.86,298.34
369,0.6883,0.1118,0.259,0.6683,299.2,12.88,268.18,294.11
370,0.7397,0.1324,0.166,0.6385,310.99,1.02,278.18,299.0
371,0.7311,0.2481,-0.1028,0.6273,341.48,330.12,281.22,296.57
372,0.6355,0.3972,-0.2838,0.5982,346.85,301.79,277.13,297.79
373,0.6394,0.4935,-0.247,0.5354,335.45,293.58,288.17,292.8
374,0.5964,0.6078,-0.3375,0.4012,350.24,271.91,296.87,293.99
375,0.4964,0.7486,-0.2367,0.3704,322.72,255.78,310.36,295.12
376,0.4744,0.7625,-0.1503,0.4134,301.6,256.22,314.61,291.16
377,0.4433,0.7571,-0.1214,0.4643,286.92,257.35,312.18,291.14
378,0.4312,0.67,0.0525,0.6019,243.17,280.63,301.01,291.85
379,0.493,0.4985,0.2394,0.6717,230.17,336.36,267.72,292.77
380,0.4929,0.4351,0.2177,0.7214,245.23,347.7,255.44,297.03
381,0.4416,0.4452,0.1713,0.7599,248.23,346.29,247.62,297.88
382,0.4863,0.4415,0.1107,0.7458,259.96,335.71,257.68,296.09
383,0.544,0.5114,0.0214,0.6649,270.62,312.04,279.3,296.57
384,0.5715,0.6291,-0.1178,0.5135,298.48,282.13,301.18,296.57
385,0.7847,0.6067,-0.0346,0.1226,349.17,285.23,346.38,294.08
386,0.8999,0.4097,0.1027,-0.1089,349.03,310.25,16.34,299.52
387,0.9237,0.1973,0.2398,-0.2245,318.48,329.67,33.0,299.01
388,0.8165,0.0374,0.3343,-0.4692,298.56,334.16,66.97,303.69
389,0.7445,-0.0929,0.53,-0.3953,240.79,326.3,75.62,304.25
390,0.6832,-0.0906,0.6744,-0.2651,208.38,287.59,101.78,307.19
391,0.6848,0.0764,0.6569,-0.3061,242.95,283.88,95.54,306.54
392,0.7778,0.2313,0.5758,-0.0993,243.6,295.86,53.01,306.96
393,0.8993,0.3406,0.2695,0.0515,297.37,316.8,6.11,305.96
394,0.9532,0.2758,0.1008,0.0724,333.16,328.3,355.14,304.51
395,0.9696,0.1173,0.1475,0.1559,322.35,348.95,343.57,302.37
396,0.9691,-0.2057,0.0706,0.1167,349.82,24.63,345.15,303.91
397,0.9193,-0.3279,0.1121,0.1866,350.39,40.32,335.28,303.77
398,0.9148,-0.3328,0.2128,0.0841,321.05,43.14,341.74,303.77
399,0.8409,-0.3873,0.3742,-0.054,275.69,55.49,344.43,307.16
400,0.692,-0.3917,0.5998,-0.0893,231.67,93.46,307.38,308.25
401,0.4472,-0.4182,0.7715,-0.1731,246.82,168.81,242.95,312.38
402,0.0898,-0.4046,0.8583,-0.3026,312.97,209.16,224.29,310.93
403,-0.1678,-0.3359,0.8519,-0.365,4.67,227.32,224.06,317.94
404,-0.2821,-0.3296,0.7317,-0.5257,7.61,253.22,231.33,318.01
405,-0.4249,-0.1991,0.4899,-0.7347,14.21,296.37,235.67,319.93
406,-0.5633,0.0022,0.2899,-0.7737,38.55,331.8,247.23,318.49
407,-0.5346,0.1313,0.2599,-0.7933,58.19,341.86,243.21,320.92
408,-0.617,0.227,0.2238,-0.7195,74.15,356.99,260.21,324.49
409,-0.7784,0.168,0.165,-0.5819,53.8,4.46,287.5,322.8
410,-0.811,0.1608,0.0605,-0.5592,32.28,11.6,292.47,324.3
411,-0.8467,0.1185,-0.0101,-0.5186,12.15,12.25,297.68,325.88
412,-0.8273,0.2065,-0.0891,-0.5148,7.47,25.75,297.07,325.29
413,-0.6995,0.2944,-0.1535,-0.6328,18.16,37.86,278.85,325.9
414,-0.5766,0.28,-0.2391,-0.7294,15.26,42.66,259.63,325.73
415,-0.4986,0.2154,-0.3448,-0.7656,358.39,47.97,245.79,325.83
416,-0.4025,0.2031,-0.3198,-0.8333,9.3,44.33,233.46,324.57
417,-0.3966,0.1892,-0.2231,-0.8702,17.52,33.0,231.6,322.44
418,-0.3256,0.2097,-0.1829,-0.9036,30.12,28.93,223.54,323.21
419,-0.3376,0.1495,-0.2121,-0.9048,14.63,29.26,222.83,322.66
420,-0.3505,0.1732,-0.1999,-0.8984,19.69,29.2,225.19,323.75
421,-0.3243,0.1863,-0.0719,-0.9246,34.66,15.42,221.01,321.78
422,-0.2736,0.1935,0.0479,-0.941,45.95,0.98,212.62,324.63
423,-0.3345,0.1511,0.1169,-0.9228,41.84,352.95,218.55,321.13
424,-0.3425,0.0528,0.1456,-0.9267,22.79,346.21,219.19,323.81
425,-0.4382,-0.0363,0.2156,-0.8719,14.44,335.73,231.81,324.3
426,-0.6208,-0.0422,0.281,-0.7306,33.39,331.09,256.37,324.83
427,-0.7099,-0.0347,0.2924,-0.6398,43.52,332.88,270.63,326.25
428,-0.7669,-0.1346,0.2206,-0.5874,20.76,331.75,282.48,327.36
429,-0.7736,-0.3133,0.1646,-0.5256,351.43,318.73,293.22,328.69
430,-0.7319,-0.4236,0.071,-0.529,319.74,312.23,297.28,327.31
431,-0.666,-0.5886,-0.0717,-0.4525,282.16,292.42,318.22,327.97
432,-0.5647,-0.6958,-0.1115,-0.4296,267.28,270.58,331.42,325.93
433,-0.3809,-0.8436,-0.0887,-0.368,272.99,232.75,349.62,323.64
434,-0.1879,-0.9303,-0.1062,-0.2967,287.4,200.82,6.14,321.22
435,-0.121,-0.9396,-0.0988,-0.3045,286.8,192.02,8.01,320.96
436,0.0367,-0.9594,-0.0703,-0.2707,298.09,172.74,10.39,321.25
437,0.1114,-0.9579,-0.1504,-0.2175,314.95,162.43,21.38,318.58
438,0.0123,-0.973,-0.1498,-0.1753,320.56,175.35,18.32,317.48
439,-0.0059,-0.9822,-0.1304,-0.1354,328.96,178.59,15.32,318.76
440,-0.0962,-0.9677,-0.1968,-0.1251,327.48,188.2,21.81,317.15
441,-0.3502,-0.8723,-0.1904,-0.2832,282.28,220.25,9.9,320.47
442,-0.3906,-0.817,-0.3178,-0.2809,269.96,220.57,25.1,320.97
443,-0.4298,-0.7859,-0.4173,-0.1533,286.32,223.18,40.92,324.85
444,-0.529,-0.7179,-0.3999,-0.2117,266.71,239.28,30.68,322.48
445,-0.6681,-0.6106,-0.4124,-0.1032,274.76,263.29,29.81,324.0
446,-0.7539,-0.4906,-0.4255,0.0997,294.13,280.75,42.57,324.0
447,-0.8505,-0.3954,-0.345,-0.0348,284.18,304.71,15.71,325.4
448,-0.9099,-0.3195,-0.193,-0.1809,304.33,324.65,346.54,325.04
449,-0.938,-0.2486,-0.0505,-0.2363,335.49,333.07,334.67,326.2
450,-0.8992,-0.1262,0.0346,-0.4175,355.05,345.16,310.51,325.3
451,-0.7223,0.2303,0.2085,-0.6177,71.73,5.32,280.66,322.16
452,-0.2517,0.617,0.4537,-0.5917,146.86,232.61,113.13,326.93
453,-0.1817,0.4988,0.5857,-0.6125,110.96,251.09,140.35,333.32
454,-0.5329,0.2861,0.4528,-0.6551,118.05,325.93,238.58,334.24
455,-0.5758,0.1773,0.3192,-0.7315,77.65,340.28,249.41,333.86
456,-0.4688,0.1019,0.3193,-0.8173,55.53,331.2,232.42,330.59
457,-0.4906,0.0115,0.2621,-0.831,32.08,333.8,237.36,328.71
458,-0.5063,-0.1252,0.2562,-0.8138,6.39,327.0,242.83,327.06
459,-0.4542,-0.1983,0.398,-0.772,6.35,307.26,239.36,327.06
460,-0.4143,-0.2455,0.5439,-0.6872,13.0,286.84,237.34,328.68
461,-0.3743,-0.2468,0.6904,-0.5677,27.37,265.56,232.02,324.96
462,-0.3662,-0.2289,0.766,-0.4762,40.12,252.77,228.13,327.72
463,-0.3594,-0.1842,0.8347,-0.3744,55.04,238.66,220.56,330.02
464,-0.3069,-0.1517,0.9254,-0.1624,62.5,207.42,206.42,330.97
465,-0.1487,-0.0707,0.9814,0.0992,35.62,169.49,186.59,333.58
466,-0.114,0.0799,0.9105,0.3893,16.72,132.7,166.31,335.97
467,-0.1725,0.2432,0.8181,0.4917,4.94,117.22,145.38,338.2
468,-0.1918,0.4496,0.6735,0.5544,332.21,108.72,122.54,342.62
469,-0.1121,0.5579,0.5031,0.6504,284.39,99.38,116.49,347.34
470,-0.1751,0.5608,0.5633,0.581,305.95,107.21,110.35,350.15
471,-0.2659,0.6527,0.5371,0.4634,322.77,116.92,90.4,348.61
472,-0.2724,0.8168,0.3448,0.374,309.94,129.14,57.82,351.68
473,-0.2469,0.8053,0.4249,0.3317,322.16,134.08,63.72,349.91
474,-0.1697,0.7543,0.5198,0.3634,316.33,136.94,77.84,356.15
475,-0.0681,0.8071,0.5724,0.1279,345.23,165.02,71.66,350.3
476,0.0096,0.7722,0.6251,-0.113,18.71,189.11,78.73,354.81
477,0.0214,0.7466,0.6648,-0.0159,359.47,183.04,83.36,348.8
478,-0.135,0.737,0.6505,-0.1243,42.05,177.71,82.43,351.47
479,-0.3361,0.6003,0.6094,-0.3941,123.94,189.41,96.52,342.47
480,-0.5328,0.3905,0.5015,-0.5587,152.2,323.08,237.99,335.08
481,-0.5203,0.3875,0.4206,-0.6342,136.62,339.37,244.66,324.71
482,-0.5085,0.3642,0.3134,-0.7145,114.12,351.82,246.42,326.84
483,-0.6498,0.3816,0.2634,-0.6023,106.64,17.4,283.12,321.95
484,-0.783,0.4016,0.1526,-0.4497,73.78,37.94,313.34,318.28
485,-0.8927,0.3136,0.2424,-0.2145,69.13,33.61,343.71,327.05
486,-0.9055,0.2618,0.3292,0.0568,69.01,38.36,19.51,324.91
487,-0.8695,0.2164,0.3164,0.3115,49.08,39.08,48.25,321.16
488,-0.8281,0.0691,0.2902,0.4746,49.04,25.38,65.25,325.45
489,-0.8655,0.2048,0.2742,0.3657,37.91,35.94,52.01,328.62
490,-0.8674,0.3434,0.1832,0.3102,12.03,45.5,41.88,326.9
491,-0.8486,0.2672,0.1905,0.415,11.65,37.94,54.13,328.42
492,-0.8183,0.3254,0.2414,0.4077,14.9,47.36,56.24,329.61
493,-0.8,0.423,0.2538,0.3415,13.45,58.88,50.03,331.6
494,-0.7572,0.5337,0.2625,0.2699,12.57,72.88,43.88,328.39
495,-0.687,0.6861,0.1826,0.1549,4.39,90.47,27.63,325.99
496,-0.6198,0.7799,0.0876,0.0001,12.44,103.48,7.9,327.72
497,-0.4565,0.8835,0.004,-0.105,21.81,124.85,354.81,338.37
498,-0.1337,0.9832,-0.0008,-0.1247,28.35,164.26,357.94,341.42
499,0.0112,0.9974,-0.0532,0.0475,349.25,181.58,353.82,349.49
500,0.0398,0.9916,-0.0495,0.1125,334.67,185.3,353.7,349.74
501,0.3721,0.9089,-0.1879,0.0141,13.12,223.32,339.24,356.31
502,0.5666,0.7599,-0.3046,-0.0931,58.24,247.06,335.85,1.85
503,0.6865,0.5829,-0.4063,-0.1545,95.12,269.18,337.19,11.89
504,0.8126,0.3509,-0.4314,-0.1743,110.86,312.25,358.03,19.2
505,0.7941,0.4133,-0.407,-0.1815,105.59,302.73,355.42,26.35
506,0.7648,0.4983,-0.3608,-0.1912,95.88,291.26,354.25,25.25
507,0.6348,0.7007,-0.2868,-0.1541,70.93,259.64,345.33,20.29
508,0.4779,0.8609,-0.1489,-0.0913,34.87,236.5,349.79,18.6
509,0.4024,0.9122,0.0476,-0.0608,8.34,227.9,7.83,2.79
510,0.2766,0.9473,0.1385,-0.0835,9.36,213.3,18.04,6.29
511,0.228,0.9483,0.2013,-0.0907,9.19,208.06,25.12,0.94
512,0.1799,0.94,0.2743,-0.0935,8.84,203.0,33.44,359.05
513,0.1258,0.9272,0.3377,-0.1019,11.93,197.68,40.96,1.32
514,0.0868,0.9014,0.3791,-0.1901,32.14,198.23,48.22,355.2
515,0.0417,0.89,0.4055,-0.2043,38.53,194.72,51.5,353.38
516,0.0094,0.883,0.4282,-0.1918,38.61,191.05,53.63,355.2
517,-0.0575,0.8851,0.4376,-0.1473,36.24,181.63,52.88,346.4
518,-0.149,0.8704,0.4456,-0.1473,45.82,172.01,52.6,349.06
519,-0.1733,0.865,0.4418,-0.1628,51.55,170.03,51.83,347.42
520,-0.2121,0.8507,0.4563,-0.1519,53.76,165.57,52.95,346.59
521,-0.5105,0.6756,0.527,0.0725,52.23,121.43,61.1,347.57
522,-0.6552,0.5174,0.4997,0.2309,49.16,92.19,64.33,340.37
523,-0.7175,0.4864,0.4636,0.1837,58.22,83.63,54.87,340.37
524,-0.83,0.3369,0.4445,0.0075,94.24,56.26,27.29,341.98
525,-0.9414,-0.1897,0.2181,-0.1739,40.32,332.53,334.09,335.97
526,-0.7819,-0.6155,-0.0293,-0.0946,341.33,284.12,353.49,331.2
527,-0.6863,-0.7205,-0.0629,-0.0771,337.22,267.31,359.11,324.59
528,-0.5965,-0.7942,-0.0552,-0.1023,333.61,254.05,357.98,324.71
529,-0.5983,-0.7769,-0.1582,-0.1157,316.69,253.93,6.64,322.03
530,-0.6443,-0.7124,-0.1918,-0.2014,295.43,263.99,0.93,321.34
531,-0.6757,-0.6815,-0.1173,-0.2554,299.12,272.89,347.59,324.38
532,-0.6927,-0.6431,-0.1688,-0.2795,287.21,278.28,347.8,326.04
533,-0.6677,-0.6639,-0.228,-0.2477,281.4,271.07,357.92,324.29
534,-0.6397,-0.7136,-0.1658,-0.2326,294.09,264.98,355.83,325.75
535,-0.5966,-0.7635,-0.1928,-0.1548,304.38,254.25,7.12,324.66
536,-0.5661,-0.7862,-0.2089,-0.1331,307.05,248.81,11.46,322.7
537,-0.5477,-0.7527,-0.3314,-0.1539,287.02,243.97,24.26,321.91
538,-0.5518,-0.7223,-0.3981,-0.124,283.6,242.71,33.89,323.8
539,-0.5637,-0.6514,-0.4965,-0.1068,271.32,241.47,47.38,323.32
540,-0.5166,-0.572,-0.6239,-0.1291,255.19,224.8,72.05,324.12
541,-0.5146,-0.563,-0.6386,-0.1022,258.88,224.96,75.09,327.28
542,-0.5633,-0.5551,-0.612,0.0043,273.58,239.91,69.87,325.7
543,-0.6177,-0.5167,-0.5923,0.0232,269.88,250.5,65.12,324.44
544,-0.6379,-0.4863,-0.597,0.0133,263.04,253.72,64.37,326.25
545,-0.6622,-0.5754,-0.4377,0.197,318.66,267.23,54.8,324.12
546,-0.6296,-0.6612,-0.3239,0.2481,350.85,265.16,47.99,324.99
547,-0.6741,-0.6421,-0.3047,0.201,342.42,269.4,42.08,321.99
548,-0.7057,-0.6466,-0.1664,0.2372,8.24,276.25,33.46,324.16
549,-0.6662,-0.6989,-0.0843,0.2461,26.8,270.52,27.27,322.15
550,-0.6188,-0.7384,-0.1479,0.2233,16.88,262.19,30.02,319.71
551,-0.5616,-0.7623,-0.1589,0.2796,28.69,257.31,35.05,320.17
552,-0.4177,-0.8703,-0.0328,0.2589,50.08,235.21,17.56,321.34
553,-0.2124,-0.95,0.0398,0.2255,52.89,205.51,1.3,320.19
554,-0.0745,-0.9803,0.1595,0.0891,22.88,186.9,342.21,318.08
555,-0.3308,-0.9146,0.1979,-0.1221,349.39,221.01,333.59,316.19
556,-0.7677,-0.4809,0.4097,-0.107,63.5,283.72,318.96,315.58
557,-0.8921,-0.246,0.3768,-0.0402,81.46,321.74,340.17,320.04
558,-0.8014,-0.4687,0.3603,0.0907,82.98,293.7,345.11,326.11
559,-0.7135,-0.6136,0.3322,0.064,67.09,271.8,337.69,324.01
560,-0.4849,-0.794,0.3286,-0.1623,6.99,241.45,317.11,322.58
561,-0.0251,-0.8322,0.3974,-0.3859,283.04,206.44,299.57,319.23
562,0.1957,-0.6244,0.6534,-0.3807,266.03,201.78,257.84,318.19
563,0.2828,-0.3589,0.8162,-0.3536,268.64,212.39,213.53,314.36
564,0.4556,-0.2112,0.7861,-0.3603,239.41,229.0,180.43,308.92
565,0.5467,0.0443,0.8231,-0.1471,235.02,218.98,149.6,308.59
566,0.4639,0.1497,0.8731,0.0076,251.35,192.44,154.14,305.28
567,0.4638,0.1414,0.8727,-0.0573,255.02,202.31,150.49,308.58
568,0.4768,0.2501,0.8422,0.0277,250.42,199.44,136.77,304.6
569,0.392,0.2573,0.8832,0.0104,271.49,194.83,141.46,305.28
570,0.3717,0.2968,0.8797,-0.0016,278.47,197.16,136.3,304.32
571,0.3781,0.4311,0.817,0.0614,275.76,197.71,117.49,306.25
572,0.3594,0.5032,0.7678,0.1674,267.82,188.68,109.82,304.54
573,0.2791,0.589,0.7307,0.2032,279.33,182.4,101.37,306.98
574,0.4072,0.6847,0.5503,0.2503,255.46,207.44,63.92,304.51
575,0.4255,0.6492,0.4195,0.4706,209.05,218.95,35.13,302.01
576,0.4265,0.4721,0.3267,0.6989,220.37,8.99,236.5,305.54
577,0.4389,0.398,0.3946,0.7023,230.24,28.86,225.43,309.56
578,0.4256,0.3294,0.5763,0.615,232.8,74.5,198.88,309.33
579,0.2479,0.3713,0.5462,0.7088,254.29,77.79,174.86,308.61
580,0.1305,0.3627,0.7053,0.5949,283.99,109.12,153.11,312.03
581,0.0555,0.3541,0.8255,0.4359,312.81,132.05,144.19,306.58
582,-0.0129,0.3706,0.8766,0.3068,336.36,145.99,137.79,308.32
583,-0.069,0.4034,0.7595,0.5056,324.72,120.18,134.25,310.11
584,-0.0753,0.4894,0.5416,0.6794,288.63,94.63,128.87,309.17
585,-0.0992,0.4775,0.4468,0.7501,282.25,79.28,132.34,310.63
586,-0.098,0.3063,0.551,0.7701,317.34,77.27,148.38,310.93
587,0.0434,0.3929,0.5597,0.7284,283.22,85.26,151.29,311.21
588,0.2193,0.5639,0.5001,0.6196,226.7,110.08,132.51,310.79
589,0.2447,0.4237,0.6024,0.6307,247.96,98.73,158.83,310.96
590,0.2932,0.5117,0.5921,0.5492,229.18,122.7,136.98,312.76
591,0.2896,0.5575,0.5677,0.5319,225.56,133.45,122.95,308.4
592,0.3146,0.6079,0.4362,0.5841,200.11,133.28,111.13,309.37
593,0.1885,0.5998,0.4697,0.6197,225.99,114.32,122.39,305.92
594,-0.2112,0.5895,0.5897,0.5101,318.74,114.65,103.33,305.92
595,-0.5499,0.4891,0.5037,0.4525,12.78,89.18,85.2,305.28
596,-0.6889,0.4807,0.2973,0.4539,356.93,68.83,65.7,304.92
597,-0.7043,0.5173,0.0676,0.4815,312.48,60.14,54.83,304.18
598,-0.8092,0.3323,-0.0176,0.4843,318.98,33.78,55.51,306.81
599,-0.8052,0.4256,-0.1909,0.3662,283.5,44.01,32.96,307.64
600,-0.8138,0.3953,-0.1833,0.3844,285.93,39.02,37.03,306.33
601,-0.8196,0.0489,-0.1843,0.5402,318.41,352.69,68.12,307.18
602,-0.7642,-0.0625,-0.3561,0.5342,302.96,327.2,78.47,308.53
603,-0.5323,-0.1022,-0.4021,0.7379,327.8,313.03,115.42,309.9
604,-0.1256,-0.1576,-0.1199,0.9721,32.07,343.51,162.94,311.05
605,0.2421,-0.0934,0.0746,0.9629,16.53,11.01,209.03,311.21
606,0.3723,-0.0669,0.1705,0.9098,359.4,21.1,224.46,315.15
607,0.3768,0.054,0.1943,0.9041,331.74,18.68,222.92,313.96
608,0.4315,0.1647,-0.1072,0.8805,337.21,340.27,234.2,312.55
609,0.5614,0.1557,-0.2793,0.7632,8.72,322.92,251.21,312.2
610,0.5765,0.0985,-0.1827,0.7903,6.31,336.24,251.56,315.15
611,0.5413,0.08,-0.1669,0.8202,5.67,338.85,246.32,315.9
612,0.4646,0.0848,-0.1697,0.865,1.26,338.14,236.36,317.7
613,0.5685,0.1406,-0.1025,0.8041,347.43,340.93,251.58,313.65
614,0.6168,0.2247,0.0868,0.7493,307.3,350.55,261.14,316.96
615,0.5257,0.3504,0.5383,0.5577,213.8,52.98,226.06,315.14
616,0.5317,0.295,0.7519,0.2548,216.43,167.16,146.47,313.78
617,0.5953,0.2347,0.7639,0.0837,216.82,208.66,124.97,316.71
618,0.6024,0.0854,0.7923,-0.0462,217.6,213.12,143.67,317.29
619,0.495,-0.0541,0.8465,-0.1885,241.73,211.16,169.34,317.92
620,0.4023,-0.1786,0.8425,-0.3105,255.84,218.12,184.77,319.84
621,0.2315,-0.2978,0.7911,-0.4816,278.46,235.49,199.13,321.37
622,-0.0365,-0.3864,0.7481,-0.5382,317.65,243.37,221.47,322.13
623,-0.125,-0.4208,0.6888,-0.5769,323.48,251.39,229.67,325.19
624,-0.0936,-0.4857,0.5757,-0.6511,296.7,260.89,233.14,325.39
625,-0.1325,-0.4624,0.4812,-0.7329,293.24,277.52,229.95,326.93
626,-0.1535,-0.5101,0.4933,-0.6877,293.24,269.51,238.82,327.35
627,-0.1608,-0.5902,0.4767,-0.6313,287.41,259.18,251.81,326.18
628,-0.0611,-0.7086,0.3837,-0.589,256.03,240.99,271.08,325.78
629,-0.0561,-0.7751,0.38,-0.5016,265.38,223.67,287.86,324.65
630,-0.069,-0.7877,0.4388,-0.4269,284.54,217.68,288.45,326.83
631,-0.0413,-0.7794,0.4903,-0.3879,291.32,212.59,285.33,325.87
632,-0.1343,-0.7301,0.5266,-0.4143,304.76,225.54,276.62,327.62
633,-0.2752,-0.6818,0.5176,-0.4375,323.68,240.65,274.91,325.21
634,-0.462,-0.5891,0.5483,-0.3728,7.73,252.79,276.96,327.21
635,-0.566,-0.5675,0.5542,-0.2248,43.7,253.85,287.86,327.19
636,-0.5178,-0.6705,0.528,-0.0585,55.86,238.87,299.53,328.53
637,-0.4589,-0.7159,0.5238,0.0498,67.02,226.51,302.36,328.81
638,-0.4733,-0.6389,0.5775,0.1851,103.11,218.96,295.16,329.25
639,-0.4185,-0.3766,0.6953,0.4468,133.39,129.27,202.23,330.52
640,-0.1951,0.2708,0.6397,0.6923,345.61,87.98,141.57,327.61
641,0.0333,0.741,0.3394,0.5784,236.76,133.75,77.8,327.61
642,0.2134,0.841,0.1304,0.4798,240.77,207.55,1.64,324.28
643,0.3189,0.8087,0.0084,0.4941,252.87,238.73,329.48,325.95
644,0.3638,0.7115,-0.0938,0.5939,258.06,267.27,296.1,325.43
645,0.397,0.5915,-0.1058,0.6938,265.09,294.27,271.26,325.43
646,0.4084,0.4672,-0.2434,0.7454,300.29,300.86,254.63,328.96
647,0.2664,0.3425,-0.4094,0.8026,321.26,297.12,228.63,328.09
648,0.1329,0.2514,-0.463,0.8395,325.21,297.78,208.54,329.34
649,0.018,0.2516,-0.535,0.8063,314.54,289.04,198.87,326.31
650,-0.1332,0.415,-0.4393,0.7855,259.47,294.94,194.07,329.19
651,-0.3076,0.4415,-0.3574,0.7634,233.27,322.31,159.9,324.38
652,-0.5551,0.3861,-0.0285,0.7362,286.24,28.91,96.14,320.83
653,-0.679,0.2925,0.2364,0.6305,354.53,44.11,84.64,319.64
654,-0.6997,0.168,0.3396,0.6057,31.53,42.2,87.88,316.85
655,-0.7642,0.0168,0.3793,0.5214,68.42,30.62,78.24,315.65
656,-0.8405,-0.0604,0.3239,0.43,73.24,12.74,58.42,315.47
657,-0.9435,-0.0019,0.1478,0.2966,32.52,5.02,35.62,314.84
658,-0.9592,-0.1792,0.0582,0.2108,21.58,341.04,22.98,315.17
659,-0.85,-0.5116,0.1,0.0758,28.67,298.12,1.57,315.81
660,-0.7671,-0.6076,0.1906,0.0779,45.55,281.83,353.02,314.68
661,-0.7838,-0.574,0.202,0.124,54.65,286.98,357.58,312.04
662,-0.962,-0.2473,0.1123,-0.0271,23.37,330.52,353.68,310.01
663,-0.8787,0.3741,-0.1208,-0.2707,358.89,46.3,325.52,311.21
664,-0.5129,0.7508,-0.2268,-0.3489,33.88,103.93,313.1,314.66
665,-0.1321,0.8182,-0.4346,-0.3524,55.01,143.9,294.93,321.71
666,0.3665,0.381,-0.6978,-0.4831,123.19,123.78,201.95,323.13
667,0.5086,-0.2649,-0.5862,-0.5723,34.09,79.61,110.98,326.64
668,0.4229,-0.2431,-0.2583,-0.8339,338.45,40.37,122.25,330.3
669,0.2662,-0.3705,-0.5031,-0.7339,327.96,76.82,127.39,335.82
670,0.1271,-0.1706,-0.9419,-0.2598,17.35,147.38,156.92,336.15
671,0.187,0.1458,-0.9237,0.3008,29.88,219.17,203.28,321.51
672,0.3259,0.2454,-0.7615,0.5037,28.85,253.18,226.46,315.6
673,0.2964,0.3511,-0.7463,0.4816,11.97,248.75,234.48,311.99
674,0.2253,-0.0476,-0.9395,0.2537,53.16,210.6,181.59,313.88
675,0.1173,-0.5097,-0.8433,-0.1238,8.22,160.78,117.0,315.21
676,0.1682,-0.5169,-0.7826,-0.3034,354.23,139.49,114.17,315.74
677,0.3553,-0.5405,-0.6831,-0.339,13.67,121.42,99.46,322.18
678,0.419,-0.6062,-0.5923,-0.3258,11.63,116.03,85.04,324.78
679,0.2692,-0.6678,-0.5158,-0.4642,319.98,116.82,87.76,322.91
680,-0.0802,-0.7883,-0.2592,-0.5523,228.36,157.04,51.38,325.42
681,-0.3376,-0.8209,0.0036,-0.4607,262.14,238.05,331.17,333.25
682,-0.4721,-0.7921,0.1326,-0.3635,306.43,251.05,321.69,341.0
683,-0.6056,-0.64,0.1871,-0.4343,321.55,276.74,305.83,346.21
684,-0.7359,-0.485,0.1447,-0.4498,334.19,300.02,304.6,347.42
685,-0.7681,-0.3389,0.2361,-0.4893,3.56,311.23,294.19,350.7
686,-0.7609,-0.2697,0.2684,-0.5255,14.37,315.72,287.82,350.84
687,-0.7747,-0.2633,0.105,-0.5652,344.49,327.9,290.0,0.0
688,-0.7573,-0.1184,0.0247,-0.6418,346.84,347.74,280.14,356.71
689,-0.7587,-0.0028,0.1044,-0.643,17.82,351.94,278.81,356.27
690,-0.7674,-0.0524,0.0399,-0.6377,359.36,352.45,280.57,1.19
691,-0.7186,-0.0703,-0.0204,-0.6916,345.46,355.79,272.46,0.0
692,-0.7238,-0.154,0.0015,-0.6726,336.34,346.71,275.59,354.05
693,-0.678,-0.2444,0.0268,-0.6927,324.81,337.25,272.33,356.4
694,-0.5764,-0.3603,-0.0227,-0.7331,292.67,332.67,264.77,356.03
695,-0.4698,-0.4813,-0.102,-0.733,253.47,329.61,260.83,352.06
696,-0.2688,-0.6156,-0.2676,-0.6908,192.21,21.39,203.26,349.38
697,-0.0019,-0.7192,-0.4327,-0.5437,256.82,131.16,86.82,342.87
698,0.0813,-0.7648,-0.4571,-0.4467,284.98,137.82,76.65,337.02
699,0.1726,-0.7803,-0.4167,-0.4333,295.67,131.87,70.88,332.19
700,0.3281,-0.7633,-0.4471,-0.3315,335.44,125.32,67.08,332.92
701,0.5312,-0.701,-0.411,-0.2398,11.53,108.8,56.64,332.4
702,0.6395,-0.6432,-0.3305,-0.261,9.98,92.64,49.63,326.08
703,0.6146,-0.6902,-0.1798,-0.3369,331.75,91.03,43.07,325.9
704,0.3594,-0.879,-0.1254,-0.287,311.03,129.34,27.97,329.61
705,0.1685,-0.9657,0.0403,-0.1936,314.42,160.36,359.22,331.45
706,0.2001,-0.9578,0.0704,-0.194,312.87,157.14,356.42,337.48
707,0.3288,-0.9242,0.0164,-0.1936,316.73,139.69,5.99,339.44
708,0.1993,-0.9283,0.2476,-0.193,305.61,162.03,334.52,338.04
709,-0.0793,-0.8219,0.5628,-0.0371,3.23,189.92,291.34,344.7
710,-0.254,-0.6683,0.6986,-0.0268,37.22,203.44,271.35,348.88
711,-0.2901,-0.5922,0.7392,-0.1369,30.94,214.5,262.22,354.43
712,-0.4281,-0.4574,0.7566,-0.187,56.95,230.13,255.85,0.0
713,-0.534,-0.3372,0.7537,-0.182,86.03,240.19,253.94,3.04
714,-0.651,-0.2284,0.7048,-0.1649,114.8,259.53,264.9,357.14
715,-0.6563,-0.2588,0.6734,-0.2208,100.64,266.32,269.59,4.79
716,-0.7289,-0.2967,0.5591,-0.261,82.62,285.35,288.52,6.42
717,-0.7358,-0.3213,0.5093,-0.3097,66.81,289.21,290.28,2.71
718,-0.7517,-0.3323,0.4414,-0.3601,50.22,295.48,292.81,2.15
719,-0.7577,-0.2925,0.4911,-0.315,68.09,294.73,292.66,4.4
720,-0.7592,-0.3721,0.4737,-0.2465,64.8,288.95,300.59,1.41
721,-0.7791,-0.3221,0.4716,-0.2586,69.25,294.99,300.81,2.54
722,-0.7633,-0.2513,0.5507,-0.2259,93.28,292.9,295.12,0.36
723,-0.6911,-0.3057,0.6183,-0.2157,92.57,274.02,281.88,2.6
724,-0.5603,-0.4134,0.6675,-0.2638,64.01,254.05,267.95,4.01
725,-0.4187,-0.5171,0.6996,-0.2608,36.86,237.23,263.05,358.72
726,-0.1877,-0.6351,0.6938,-0.283,348.64,219.36,262.91,358.3
727,0.1514,-0.7303,0.6182,-0.2483,293.29,185.89,277.73,353.71
728,0.3082,-0.7561,0.5539,-0.1627,288.05,159.31,294.34,343.98
729,0.2576,-0.702,0.5885,0.3069,14.66,133.18,276.89,342.53
730,-0.2332,-0.2886,0.3948,0.8404,84.01,45.41,167.24,349.46
731,-0.4925,-0.3097,-0.0639,0.8108,52.13,332.94,111.08,31.3
732,-0.0831,-0.5608,0.1038,0.8172,138.06,12.35,176.91,40.82
733,0.3745,-0.6099,0.4394,0.5428,38.9,97.94,271.49,31.06
734,0.7537,-0.3678,0.5358,0.0973,265.2,76.75,306.95,1.67
735,0.8462,-0.0154,0.4583,-0.2712,256.73,338.99,45.8,337.62
736,0.8756,0.1075,0.3701,-0.2912,288.32,330.12,46.65,321.34
737,0.9423,0.0697,0.2352,-0.2279,311.41,344.83,30.47,323.75
738,0.9827,-0.0774,-0.0706,-0.1526,13.23,10.07,18.24,316.87
739,0.8142,-0.251,-0.5093,-0.1212,100.43,56.27,45.06,314.64
740,0.5555,-0.6676,-0.4538,-0.1994,27.53,108.2,58.42,303.69
741,0.484,-0.7726,-0.3467,-0.2205,359.42,115.74,48.51,314.38
742,0.5589,-0.6322,-0.5349,-0.0426,65.93,116.28,59.63,330.85
743,0.5331,-0.2869,-0.693,0.3913,148.92,242.12,184.21,314.33
744,0.4545,0.2105,-0.4862,0.716,16.15,296.3,239.79,302.28
745,0.3617,0.6235,-0.4575,0.5207,322.87,258.05,272.37,291.25
746,0.1984,0.7446,-0.5885,0.2446,344.97,216.04,280.91,282.99
747,0.2124,0.7314,-0.6299,-0.1526,58.78,187.81,280.58,277.79
748,0.2133,0.6697,-0.6215,-0.346,93.53,167.82,269.0,267.71
749,0.2921,0.5418,-0.5987,-0.5125,129.69,135.64,235.25,274.04
750,0.413,0.3917,-0.6162,-0.5443,138.59,100.82,185.38,274.17
751,0.5468,0.3107,-0.544,-0.5555,140.11,50.89,127.8,272.15
752,0.4753,0.1589,-0.414,-0.7599,78.85,38.24,130.11,266.03
753,0.5102,0.2773,-0.2816,-0.7639,90.63,12.08,117.57,9953.24
754,0.661,0.1475,-0.17,-0.7158,51.69,3.08,95.27,272.2
755,0.7197,0.0702,-0.2041,-0.6599,45.46,10.51,87.15,268.26
756,0.7195,0.1411,-0.1687,-0.6588,50.77,1.22,85.23,272.45
757,0.7105,0.1526,-0.1138,-0.6774,43.24,356.14,86.53,275.96
758,0.7007,0.0053,0.0138,-0.7133,358.66,358.45,91.03,267.09
759,0.7093,-0.168,0.1764,-0.6615,303.61,0.33,85.92,275.55
760,0.7144,-0.3397,0.3222,-0.5201,251.08,14.97,64.38,276.12
761,0.673,-0.4642,0.4134,-0.4008,223.58,52.26,24.79,274.24
762,0.6111,-0.5047,0.4633,-0.3965,209.77,76.19,3.79,271.33
763,0.6188,-0.5546,0.4401,-0.3404,225.51,90.36,350.05,273.73
764,0.7451,-0.5249,0.3576,-0.2033,263.44,73.13,353.75,267.51
765,0.7302,-0.4404,0.3883,-0.3494,237.96,50.12,20.33,248.2
766,0.5426,0.0713,0.4911,-0.6777,308.26,304.34,116.46,261.87
767,0.3681,0.2394,0.5885,-0.6788,347.58,281.17,128.18,272.96
768,0.0415,0.3017,0.7453,-0.5931,34.42,252.13,148.51,291.37
769,-0.3706,0.3554,0.7264,-0.4569,119.34,232.45,159.41,296.11
770,-0.5453,0.2764,0.566,-0.553,134.76,302.46,228.98,307.15
771,-0.4803,0.5278,0.6952,-0.0858,98.64,143.49,88.37,303.52
772,-0.4905,0.4654,0.7366,0.012,90.72,137.55,97.0,318.07
773,-0.4504,0.4235,0.7731,0.1421,70.34,132.66,106.76,317.82
774,-0.5451,0.1281,0.8282,0.0236,127.48,156.17,147.47,315.88
775,-0.5252,-0.181,0.8276,-0.0809,114.27,216.66,225.13,312.17
776,-0.2476,-0.5097,0.8137,0.1297,64.69,182.8,244.95,312.12
777,0.1468,-0.798,0.5679,0.1382,6.17,156.94,288.49,305.2
778,0.3701,-0.9,0.2301,0.0074,341.93,137.31,334.85,300.37
779,0.5443,-0.7993,-0.2413,0.0818,46.33,115.38,18.82,303.5
780,0.5821,-0.4144,-0.6925,0.0993,125.36,131.26,87.36,299.08
781,0.6291,0.0457,-0.7759,0.0083,154.6,198.67,201.73,299.68
782,0.6598,0.2072,-0.7184,-0.0746,156.48,234.6,257.71,301.37
783,0.8431,0.2042,-0.4929,-0.0669,118.3,327.12,350.06,303.3
784,0.9479,-0.0518,-0.3095,-0.0558,71.02,9.38,9.75,304.26
785,0.7815,-0.4226,-0.459,0.0005,91.74,71.45,33.78,304.93
786,0.6304,-0.6439,-0.4227,-0.0962,48.3,101.8,46.84,306.01
787,0.481,-0.7187,-0.2698,-0.4234,319.13,100.99,58.05,308.2
788,0.4344,-0.7162,-0.2813,-0.4683,309.53,101.74,63.54,309.34
789,0.4458,-0.6615,-0.3243,-0.5084,314.91,95.31,72.83,311.11
790,0.4393,-0.6471,-0.3467,-0.5178,317.12,94.8,76.11,310.14
791,0.4297,-0.59,-0.393,-0.5593,322.4,90.31,86.03,311.63
792,0.4222,-0.5248,-0.3749,-0.637,318.77,79.66,95.67,313.11
793,0.4532,-0.3776,-0.4525,-0.6688,349.1,72.14,107.78,312.51
794,0.4619,-0.2917,-0.4684,-0.6944,3.16,66.97,113.78,312.16
795,0.3884,-0.3793,-0.4772,-0.6911,342.33,74.93,114.56,313.5
796,0.3679,-0.3783,-0.5386,-0.6569,348.44,82.28,116.45,313.16
797,0.3939,-0.3407,-0.654,-0.5488,16.24,95.07,117.53,312.48
798,0.4095,-0.3275,-0.7164,-0.4603,33.14,104.56,118.01,313.03
799,0.376,-0.372,-0.7355,-0.4235,27.54,111.67,116.97,310.29
800,0.3302,-0.4802,-0.679,-0.4465,2.26,112.54,108.71,310.94
801,0.35,-0.5244,-0.6274,-0.4571,355.39,109.71,101.84,310.44
802,0.3717,-0.6124,-0.5386,-0.4434,343.6,109.5,88.47,306.67
803,0.3791,-0.6766,-0.4992,-0.3863,343.4,114.74,78.15,309.94
804,0.3756,-0.7193,-0.44,-0.3846,334.25,115.65,71.02,308.33
805,0.3912,-0.74,-0.3883,-0.3856,329.05,114.3,65.41,305.85
806,0.416,-0.7275,-0.4034,-0.3675,337.05,113.06,65.62,309.5
807,0.4527,-0.7293,-0.39,-0.3332,344.74,111.8,61.45,308.66
808,0.5096,-0.715,-0.327,-0.3494,340.84,103.87,56.66,307.19
809,0.5969,-0.6609,-0.2059,-0.4057,326.23,87.5,52.24,306.59
810,0.6571,-0.5598,-0.2145,-0.457,333.43,73.21,59.75,307.59
811,0.6831,-0.513,-0.2059,-0.4774,335.93,66.56,61.98,308.25
812,0.6551,-0.4997,-0.1384,-0.5496,316.82,60.19,67.38,311.61
813,0.622,-0.4557,-0.2002,-0.6045,324.85,58.05,78.56,310.17
814,0.6064,-0.4442,-0.2398,-0.6143,330.46,59.53,82.27,312.01
815,0.6016,-0.4465,-0.1918,-0.634,320.81,55.94,82.52,308.46
816,0.5481,-0.4911,-0.1725,-0.6547,306.01,59.06,84.65,310.27
817,0.4974,-0.4973,-0.2569,-0.6627,312.39,65.91,90.65,310.93
818,0.4685,-0.43,-0.3128,-0.7055,323.43,62.76,101.62,310.09
819,0.4222,-0.449,-0.2717,-0.7392,308.52,60.09,105.48,311.39
820,0.3448,-0.5524,-0.1741,-0.7387,271.77,62.72,102.22,310.5
821,0.3213,-0.6396,-0.1264,-0.6868,254.26,75.61,87.67,312.4
822,0.3206,-0.6527,-0.2539,-0.6378,275.9,88.53,85.56,310.14
823,0.3313,-0.6692,-0.4024,-0.5296,307.51,104.16,82.63,312.38
824,0.3363,-0.6862,-0.4378,-0.4737,318.33,110.35,79.65,308.66
825,0.3303,-0.7265,-0.4397,-0.4119,324.12,117.72,73.27,308.33
826,0.2578,-0.7926,-0.4619,-0.3033,331.91,134.76,66.34,310.33
827,0.1644,-0.8372,-0.4886,-0.1829,343.27,152.69,62.57,307.64
828,0.0898,-0.8463,-0.5251,-0.0004,10.74,171.2,63.23,308.49
829,-0.021,-0.7847,-0.5482,0.2885,50.9,202.76,75.09,304.99
830,-0.1559,-0.6821,-0.5168,0.4934,61.6,237.27,91.4,301.28
831,-0.2407,-0.5895,-0.4686,0.6124,59.53,261.11,102.58,300.36
832,-0.2091,-0.5059,-0.4299,0.718,66.28,278.13,118.59,299.6
833,-0.1577,-0.4671,-0.3821,0.7816,75.12,290.04,130.41,302.65
834,-0.1625,-0.4573,-0.3625,0.7957,75.16,293.74,131.87,298.34
835,-0.2287,-0.5134,-0.3591,0.7451,73.86,285.6,117.42,297.07
836,-0.2513,-0.3798,-0.4858,0.7461,37.64,284.66,128.19,302.16
837,-0.2511,-0.4331,-0.4572,0.7351,48.04,283.08,123.1,296.57
838,-0.3826,-0.4752,-0.4818,0.629,26.49,274.96,105.23,302.1
839,-0.3879,-0.4352,-0.4426,0.6814,28.92,283.71,109.31,303.69
840,-0.2094,-0.3868,-0.3231,0.8379,61.72,304.97,135.58,302.52
841,-0.1636,-0.3201,-0.2935,0.8858,56.21,314.91,147.21,299.08
842,-0.2119,-0.3375,-0.2964,0.8679,54.81,312.21,140.23,298.07
843,-0.162,-0.2445,-0.2396,0.9255,44.05,325.68,153.27,300.34
844,-0.1481,-0.285,-0.2874,0.9024,50.84,318.11,151.49,297.34
845,-0.3449,-0.3828,-0.4986,0.697,21.88,282.33,118.53,302.28
846,-0.4146,-0.4173,-0.5431,0.5992,5.72,273.55,107.96,301.91
847,-0.309,-0.4189,-0.543,0.659,25.0,273.49,117.99,304.97
848,-0.3144,-0.5171,-0.5871,0.5377,21.54,256.82,105.8,303.69
849,-0.3942,-0.6108,-0.6003,0.3334,352.44,242.11,86.72,303.69
850,-0.376,-0.6299,-0.628,0.2599,343.36,233.96,85.58,304.14
851,-0.328,-0.689,-0.6122,0.2071,346.65,225.26,80.46,304.15
852,-0.3422,-0.7647,-0.5345,0.1114,337.45,220.93,65.69,304.05
853,-0.3242,-0.7899,-0.4747,0.2136,3.4,225.67,62.72,301.52
854,-0.3085,-0.7302,-0.493,0.3587,25.37,235.51,74.75,307.27
855,-0.2203,-0.6636,-0.615,0.3644,24.56,229.29,91.3,301.84
856,-0.1321,-0.5604,-0.7592,0.3035,16.05,217.94,109.9,302.89
857,-0.047,-0.4195,-0.8614,0.2825,17.95,212.19,130.66,305.92
858,0.1226,-0.3091,-0.9323,0.1422,36.9,191.51,145.19,304.54
859,0.2021,-0.1864,-0.9611,-0.0261,44.52,172.2,156.51,309.6
860,0.2162,-0.0439,-0.9559,-0.1937,46.69,154.91,169.48,310.08
861,0.2389,0.1092,-0.914,-0.309,60.57,143.57,183.45,311.23
862,0.1957,0.269,-0.8688,-0.3668,65.0,140.89,202.58,314.82
863,0.0401,0.3904,-0.8164,-0.4236,46.69,134.01,221.1,316.81
864,-0.0741,0.4991,-0.7453,-0.4359,37.89,130.08,238.74,316.4
865,-0.1451,0.5935,-0.6534,-0.4469,39.85,126.44,254.36,318.79
866,-0.2388,0.7136,-0.545,-0.3699,31.04,129.46,277.9,317.96
867,-0.4712,0.746,-0.4084,-0.2338,355.86,116.55,303.88,317.93
868,-0.5709,0.7086,-0.2887,-0.2975,10.55,99.89,311.23,318.53
869,-0.5909,0.6561,-0.1541,-0.4435,47.13,84.26,307.59,318.09
870,-0.6132,0.6052,-0.0289,-0.5068,70.61,70.99,306.43,319.63
871,-0.6047,0.5253,0.0475,-0.5968,86.38,52.52,292.86,318.29
872,-0.6632,0.3839,0.179,-0.6171,90.67,24.2,284.36,317.16
873,-0.6385,0.3434,0.291,-0.6243,106.33,7.19,274.88,317.5
874,-0.5505,0.4307,0.4065,-0.5884,145.26,359.19,265.6,317.69
875,-0.5457,0.4524,0.4634,-0.5318,161.44,0.34,271.77,313.44
876,-0.4423,0.5911,0.5364,-0.409,146.66,162.93,71.69,318.74
877,-0.3599,0.649,0.6085,-0.2809,106.77,167.88,80.2,321.81
878,-0.2581,0.7058,0.6316,-0.1903,72.98,171.14,80.72,320.42
879,-0.2303,0.6678,0.6862,-0.1737,66.46,175.25,90.13,324.05
880,-0.3893,0.4498,0.7791,-0.1978,103.35,176.12,118.13,324.27
881,-0.3483,0.3966,0.8374,-0.1421,88.23,176.94,128.08,322.13
882,-0.2357,0.3995,0.8843,-0.0536,54.73,173.95,129.9,323.18
883,-0.1656,0.3927,0.9043,-0.0238,37.11,174.73,132.19,325.39
884,-0.0431,0.5244,0.8369,0.1507,350.14,162.63,116.62,327.11
885,0.0161,0.5708,0.7708,0.2824,319.37,153.6,111.77,326.02
886,0.0968,0.6293,0.6519,0.4119,279.73,147.1,104.33,325.49
887,0.2371,0.6019,0.2536,0.7191,199.24,28.4,192.35,328.89
888,0.2937,0.2833,-0.3303,0.8511,326.49,310.46,225.86,333.99
889,0.0991,-0.2277,-0.758,0.6031,50.29,253.79,165.57,342.47
890,-0.1287,-0.6056,-0.784,0.0453,343.11,193.26,103.64,2.42
891,-0.1997,-0.7224,-0.6108,-0.2551,284.44,178.32,81.01,13.64
892,-0.1599,-0.7775,-0.5303,-0.2979,281.48,175.02,70.37,16.8
893,-0.0389,-0.7952,-0.4021,-0.4521,262.77,152.84,66.1,14.17
894,-0.0325,-0.7502,-0.3068,-0.5848,232.35,135.35,73.17,14.16
895,-0.0281,-0.667,-0.3777,-0.6416,237.4,111.37,103.08,14.48
896,-0.1188,-0.6896,-0.3293,-0.634,215.42,123.49,93.92,14.6
897,-0.3538,-0.7219,-0.1603,-0.5727,219.79,254.04,329.28,14.92
898,-0.5307,-0.7026,0.0183,-0.4737,279.48,270.9,316.18,19.92
899,-0.647,-0.6297,0.1155,-0.4142,316.3,281.2,312.76,23.36
900,-0.6963,-0.5916,0.0973,-0.3946,321.28,287.33,315.22,24.46
901,-0.7002,-0.6072,0.1303,-0.3521,331.62,283.64,317.78,27.33
902,-0.6172,-0.6987,0.2646,-0.2466,357.94,263.31,317.61,29.33
903,-0.4637,-0.7894,0.3402,-0.2145,357.35,241.44,312.59,27.36
904,-0.2871,-0.802,0.2681,-0.4501,290.79,238.5,303.23,23.77
905,-0.0517,-0.679,0.0765,-0.7284,202.3,290.07,247.91,22.68
906,0.1284,-0.618,0.0966,-0.7696,205.15,2.64,158.93,14.5
907,0.4131,-0.3602,-0.1972,-0.8128,310.01,43.01,116.13,15.51
908,0.4786,-0.2538,-0.3264,-0.7746,350.74,48.68,114.48,7.5
909,0.3492,-0.519,-0.4906,-0.6066,326.64,91.2,103.11,5.49
910,-0.1015,-0.7863,-0.4737,-0.3835,271.27,163.45,68.92,7.39
911,-0.482,-0.7837,-0.3065,-0.2439,274.65,235.5,19.49,9.26
912,-0.7235,-0.6904,-0.0005,-0.003,359.45,272.68,359.79,17.8
913,-0.6604,-0.7053,0.228,0.1202,56.15,263.57,349.36,21.66
914,-0.5398,-0.7292,0.3998,0.1304,76.9,240.7,325.61,21.88
915,-0.3773,-0.7063,0.5611,0.2096,92.02,205.39,293.99,23.25
916,-0.1905,-0.691,0.6591,0.2278,68.92,177.43,271.91,20.66
917,-0.1349,-0.6551,0.7191,0.1889,52.39,173.93,263.25,14.8
918,-0.1809,-0.6668,0.7178,0.086,43.97,187.29,267.2,18.43
919,-0.2575,-0.6895,0.6501,-0.1886,8.57,217.02,274.8,22.35
920,-0.4574,-0.5308,0.4937,-0.515,349.09,267.07,268.96,12.85
921,-0.5791,-0.3155,0.1293,-0.7405,322.99,324.03,262.11,9.01
922,-0.6635,-0.2734,-0.0378,-0.6954,309.02,339.89,271.91,9.52
923,-0.8027,-0.4467,-0.0893,-0.3849,301.69,312.06,321.95,4.2
924,-0.7889,-0.426,-0.2956,-0.3299,263.27,314.09,336.16,2.41
925,-0.701,-0.2694,-0.5365,-0.385,212.7,7.22,297.04,355.98
926,-0.6392,-0.0554,-0.6166,-0.4563,245.98,64.6,251.05,0.64
927,-0.4757,0.2306,-0.7533,-0.3913,295.14,106.6,238.5,1.8
928,-0.3999,0.3707,-0.7906,-0.2787,309.6,125.45,243.39,2.92
929,-0.5154,0.395,-0.7601,0.0259,253.0,141.81,254.71,0.25
930,-0.472,0.2713,-0.7236,0.4242,228.07,241.47,178.91,359.25
931,-0.322,0.1664,-0.6434,0.6742,280.6,278.72,163.37,356.19
932,-0.2519,0.1575,-0.5267,0.7964,297.84,297.5,164.05,353.46
933,-0.2278,0.1002,-0.5209,0.8165,312.73,298.51,163.01,353.13
934,-0.2906,0.0996,-0.5187,0.7979,305.18,299.87,156.05,351.05
935,-0.4305,0.0712,-0.5588,0.7052,288.87,296.68,139.56,349.39
936,-0.6459,-0.0031,-0.5233,0.5558,275.47,307.67,102.93,351.06
937,-0.8264,-0.0971,-0.3669,0.4161,296.59,326.81,63.12,350.23
938,-0.8061,-0.3367,-0.3486,0.3395,321.06,304.22,56.06,349.02
939,-0.7791,-0.5056,-0.2902,0.2307,334.71,289.16,42.0,346.6
940,-0.9127,-0.3984,-0.034,-0.0833,345.23,313.32,352.77,346.87
941,-0.8879,0.1961,0.2216,-0.3523,64.23,13.1,320.5,344.34
942,-0.6981,0.5705,0.1659,-0.3996,86.87,66.12,329.49,356.04
943,-0.268,0.6314,0.3072,-0.6596,171.94,281.81,149.67,357.6
944,0.3783,0.5807,0.5087,-0.5107,24.04,258.69,92.3,5.24
945,0.6837,0.63,0.052,-0.3645,45.69,282.59,37.73,17.62
946,0.791,0.5575,-0.2459,-0.0546,53.47,286.76,347.86,19.71
947,0.9377,-0.0728,-0.3221,0.108,76.61,4.89,348.56,15.87
948,0.595,-0.622,-0.4995,0.0975,91.41,113.0,46.35,21.97
949,0.0347,-0.8667,-0.4975,0.009,5.76,177.06,59.64,33.05
950,-0.2154,-0.9097,-0.3548,0.0088,344.26,203.7,40.96,36.91
951,-0.1878,-0.9713,-0.1453,0.0107,356.12,201.6,16.64,38.57
952,-0.6769,-0.7349,0.0023,-0.0415,353.36,265.4,356.58,36.75
953,-0.714,-0.6911,0.1104,-0.0188,15.13,271.18,349.56,38.75
954,-0.7884,-0.5846,0.1846,0.0506,41.02,285.37,351.65,40.6
955,-0.9276,-0.3032,0.1769,0.1277,47.86,325.53,8.16,39.62
956,-0.9382,-0.2235,0.2052,0.1665,54.7,336.72,14.39,40.48
957,-0.9431,0.1172,0.1455,0.2752,24.23,17.94,34.45,39.73
958,-0.8468,0.3843,0.0861,0.3576,345.17,45.92,42.65,41.96
959,-0.8025,0.4357,0.12,0.3897,343.09,53.26,47.56,42.51
960,-0.6016,0.6753,0.0487,0.4238,298.16,84.44,42.16,42.51
961,-0.5087,0.7609,-0.024,0.402,280.97,101.91,28.87,42.51
962,-0.3156,0.8835,-0.0995,0.3316,279.1,139.76,2.52,42.88
963,-0.1788,0.9398,-0.1225,0.2642,294.58,161.19,350.72,42.25
964,0.0496,0.9674,-0.1684,0.1823,320.72,189.62,338.59,42.51
965,0.2929,0.929,-0.215,0.0701,359.52,215.06,333.86,41.0
966,0.3923,0.887,-0.2437,0.0074,20.5,225.3,333.56,42.15
967,0.4525,0.8605,-0.2342,-0.0051,25.5,232.74,335.89,41.1
968,0.5957,0.7756,-0.1927,-0.08,41.42,252.75,347.43,42.54
969,0.6219,0.7608,-0.1499,-0.1091,41.27,257.5,354.33,41.1
970,0.5795,0.8013,-0.1301,-0.0718,30.83,250.73,352.53,41.9
971,0.5568,0.8154,-0.1428,-0.068,31.33,247.36,350.61,41.74
972,0.6401,0.7548,-0.1249,-0.0698,30.77,259.8,354.1,42.51
973,0.5618,0.8168,-0.1258,-0.037,23.28,248.05,350.36,42.07
974,0.6719,0.727,-0.115,-0.0826,31.87,265.02,356.65,41.99
975,0.7097,0.6944,-0.0796,-0.0887,27.32,271.36,0.9,42.86
976,0.6425,0.7579,-0.0841,-0.0756,25.72,260.38,358.22,42.65
977,0.7311,0.671,-0.0508,-0.1127,26.07,275.56,5.69,43.07
978,0.7021,0.7055,-0.0369,-0.0896,20.53,270.11,4.3,40.01
979,0.6928,0.7101,-0.0475,-0.1166,26.76,269.24,5.55,41.7
980,0.7184,0.6861,-0.0116,-0.1139,19.92,273.39,8.63,40.73
981,0.7282,0.6737,-0.019,-0.1242,22.49,275.35,9.11,43.47
982,0.7288,0.669,-0.019,-0.1446,25.55,276.13,10.95,43.6
983,0.6562,0.7453,-0.001,-0.118,20.41,263.53,8.97,40.71
984,0.6734,0.7275,0.0073,-0.1316,20.92,266.59,11.01,41.65
985,0.6262,0.7732,0.0205,-0.0982,14.5,258.58,8.96,44.03
986,0.4619,0.8862,0.0057,-0.0363,6.77,235.13,2.5,41.0
987,0.2452,0.9694,0.0108,-0.0052,0.54,208.39,1.35,41.17
988,0.204,0.9787,0.0196,0.0133,356.11,203.51,1.88,44.73
989,-0.3258,0.9431,-0.0662,-0.0035,355.81,142.02,352.69,45.8
990,-0.8026,0.5953,-0.0315,0.019,351.61,73.14,359.59,44.74
991,-0.9934,0.0403,0.1041,-0.024,24.09,4.4,357.7,45.14
992,-0.8581,-0.5072,-0.0589,-0.0542,342.04,298.98,358.07,43.78
993,-0.4359,-0.8928,-0.078,0.082,8.99,232.53,12.21,42.39
994,0.1624,-0.9693,-0.0162,0.184,42.44,160.65,358.25,37.86
995,0.6958,-0.7029,-0.0317,0.1442,28.59,89.41,350.73,29.8
996,0.8914,-0.4009,-0.1746,0.1188,47.98,47.47,355.49,24.74
997,0.8639,-0.474,-0.1689,0.0221,36.44,58.68,7.37,20.96
998,0.8892,-0.3691,-0.258,-0.0809,47.05,49.59,21.39,20.36
999,0.8626,-0.124,-0.4903,0.0105,116.09,22.63,11.28,22.01
1000,0.7941,0.3516,-0.466,0.169,76.82,293.98,310.47,19.49
1001,0.6521,0.6843,-0.3119,0.0957,32.02,262.15,324.97,10.86
1002,0.1527,0.9752,-0.1215,0.1046,340.78,199.14,344.18,5.91
1003,-0.3861,0.8909,0.0067,0.2389,310.27,130.36,12.51,352.92
1004,-0.7196,0.6205,0.2182,0.2228,4.3,82.25,36.28,342.77
1005,-0.8601,0.1206,0.4948,0.0283,115.19,26.07,18.28,337.27
1006,-0.7513,-0.401,0.5184,-0.077,91.66,281.66,310.3,326.94
1007,-0.6986,-0.5918,0.3807,-0.1294,44.52,270.59,316.98,320.03
1008,-0.795,-0.5008,0.2831,-0.1925,29.82,290.48,322.4,317.79
1009,-0.8651,-0.35,0.2206,-0.2837,21.1,311.99,318.98,320.66
1010,-0.8866,-0.2839,0.1024,-0.3505,358.0,324.88,317.18,323.33
1011,-0.9162,0.0837,0.2006,-0.3367,50.17,1.16,319.91,323.58
1012,-0.6786,0.6007,0.3391,-0.2522,99.49,85.72,5.79,323.95
1013,-0.2114,0.7264,0.6535,0.0226,28.18,159.68,81.41,335.92
1014,0.0333,0.2376,0.6661,0.7061,315.35,90.01,163.06,353.66
1015,0.3767,-0.3978,0.1978,0.8127,59.68,45.75,242.59,15.09
1016,0.3799,-0.8263,-0.3325,0.2493,83.3,141.79,28.82,26.8
1017,0.2461,-0.7221,-0.4566,-0.4578,308.25,120.73,79.5,32.71
1018,0.1296,-0.6133,-0.4618,-0.6276,278.9,103.6,106.37,33.88
1019,0.1774,-0.793,-0.2349,-0.5334,260.61,124.68,60.28,36.25
1020,0.2408,-0.9207,-0.0401,-0.3043,294.48,146.2,15.19,34.51
1021,0.5473,-0.8302,0.0778,-0.0714,336.49,113.51,357.02,35.95
1022,0.8359,-0.277,0.1176,0.4589,6.61,34.89,303.51,32.03
1023,0.52,0.4596,0.1973,0.6923,245.4,337.72,266.13,26.78
1024,-0.2168,0.7076,0.2624,0.6191,260.65,102.42,81.5,13.53
1025,-0.82,0.476,0.1958,0.2501,9.52,61.84,36.78,351.67
1026,-0.9939,-0.0924,-0.0044,-0.0599,357.73,349.44,353.21,336.45
1027,-0.9328,0.2475,-0.1386,-0.2221,342.9,31.96,330.77,320.86
1028,-0.608,0.7068,0.0257,-0.3605,65.49,90.04,331.44,325.43
1029,-0.0822,0.9156,0.2125,-0.3313,79.81,179.28,25.87,341.08
1030,0.4616,0.8393,0.2722,-0.0916,348.79,235.97,32.96,358.64
1031,0.8918,0.4125,0.1856,0.0109,320.25,308.93,8.17,10.67
1032,0.9801,0.1785,0.0628,-0.0594,348.3,338.94,8.02,19.72
1033,0.9004,0.398,-0.0309,-0.1729,22.3,313.97,17.0,20.96
1034,0.522,0.81,-0.1641,-0.2108,61.72,244.76,356.94,21.38
1035,0.1651,0.9159,-0.2607,-0.2568,67.62,191.7,331.79,14.66
1036,0.0584,0.8631,-0.2795,-0.4166,97.48,168.44,318.86,10.15
1037,0.0227,0.787,-0.2609,-0.5586,126.01,145.71,301.91,11.05
1038,-0.0715,0.7304,-0.3086,-0.6051,114.25,118.31,278.18,15.56
1039,-0.2026,0.6702,-0.4107,-0.584,76.12,107.42,268.58,7.69
1040,-0.2943,0.6245,-0.4962,-0.5265,42.87,107.01,267.12,4.4
1041,-0.2396,0.6413,-0.4377,-0.5829,65.07,104.12,265.73,4.06
1042,-0.137,0.6603,-0.3272,-0.662,103.35,97.98,261.61,2.86
1043,-0.1306,0.668,-0.3267,-0.6557,104.51,99.96,263.12,6.3
1044,-0.1532,0.6704,-0.3863,-0.6147,89.8,106.17,265.61,10.4
1045,-0.2149,0.6437,-0.4806,-0.5554,61.12,109.73,264.75,6.54
1046,-0.2252,0.6379,-0.5096,-0.5317,53.33,111.89,264.56,4.79
1047,-0.1074,0.6604,-0.4319,-0.6048,89.83,110.28,261.51,4.01
1048,-0.074,0.6668,-0.4384,-0.5981,94.22,113.71,261.57,1.41
1049,-0.1778,0.659,-0.5739,-0.4525,46.2,124.97,265.74,6.75
1050,-0.2924,0.587,-0.7015,-0.279,350.52,132.51,261.93,2.78
1051,-0.3499,0.3951,-0.8197,0.2227,262.9,187.69,228.0,353.21
1052,-0.1934,0.0873,-0.7807,0.5878,312.27,255.17,174.28,347.05
1053,0.0636,-0.077,-0.8707,0.4815,21.32,237.49,175.75,339.08
1054,0.2366,-0.2236,-0.8721,0.3653,70.35,220.55,164.6,338.66
1055,0.2915,-0.289,-0.8511,0.3274,86.53,212.28,155.58,341.03
1056,0.3251,-0.2823,-0.8395,0.3315,94.29,213.25,157.66,342.93
1057,0.3541,-0.2869,-0.8051,0.3796,104.0,221.52,161.73,345.01
1058,0.4092,-0.2751,-0.7142,0.4968,118.15,250.52,181.53,341.57
1059,0.4244,-0.2517,-0.6304,0.5993,113.6,278.24,200.45,342.0
1060,0.5573,-0.2941,-0.5035,0.591,130.72,320.12,240.44,339.81
1061,0.6172,-0.35,-0.4167,0.5682,131.63,354.19,270.98,338.81
1062,0.6793,-0.2362,-0.2928,0.6301,88.12,356.16,272.75,337.75
1063,0.7171,-0.1041,-0.1553,0.6714,42.51,356.36,273.08,337.73
1064,0.7239,-0.1633,-0.2162,0.6344,62.69,357.46,276.83,335.59
1065,0.7083,-0.2395,-0.2979,0.5934,89.88,358.85,279.62,338.04
1066,0.6996,-0.1506,-0.3097,0.6261,76.91,346.94,271.78,336.25
1067,0.7328,-0.1073,-0.3109,0.5957,71.39,344.79,276.86,336.25
1068,0.8131,-0.1736,-0.2256,0.5077,65.8,3.63,297.11,335.73
1069,0.8601,-0.194,-0.058,0.4682,32.7,16.92,305.32,338.32
1070,0.8936,-0.1587,0.026,0.419,9.92,17.85,310.54,337.23
1071,0.8964,-0.1614,0.0023,0.4128,14.83,17.08,311.66,338.16
1072,0.9348,-0.2104,0.0406,0.2832,4.96,24.63,326.83,338.89
1073,0.8848,-0.2613,0.3116,0.2276,308.75,42.08,321.15,340.47
1074,0.7928,-0.3437,0.49,0.1152,271.51,66.68,313.53,340.02
1075,0.8409,-0.3482,0.4079,0.073,281.15,56.64,328.21,341.34
1076,0.8312,-0.4021,0.3795,0.0579,288.49,61.39,330.35,341.57
1077,0.7836,-0.3998,0.4749,0.0248,267.15,70.58,322.61,342.48
1078,0.7969,-0.2945,0.5106,0.1327,265.3,63.23,310.89,344.22
1079,0.7316,-0.3464,0.5758,0.1147,260.52,81.39,298.72,341.28
1080,0.6467,-0.4088,0.6407,0.0648,258.27,104.22,285.69,342.3
1081,0.6513,-0.3851,0.6527,0.038,249.63,105.1,284.71,341.67
1082,0.7065,-0.2802,0.6407,0.1085,244.74,87.65,286.87,342.02
1083,0.7167,-0.2838,0.6328,0.0736,240.17,85.63,292.07,339.16
1084,0.6549,-0.2871,0.6991,0.0046,228.16,110.39,273.17,342.83
1085,0.5229,-0.2133,0.8251,0.0193,242.57,150.61,225.76,341.46
1086,0.5175,-0.1402,0.8441,-0.0054,237.87,163.67,208.54,341.78
1087,0.5155,-0.1006,0.849,-0.0583,235.01,179.4,193.88,343.09
1088,0.1804,-0.0206,0.9747,-0.1305,318.18,195.33,179.57,340.0
1089,-0.156,0.1877,0.951,-0.1901,43.19,199.01,161.33,340.06
1090,-0.2419,0.2338,0.9224,-0.1898,64.7,196.3,156.31,340.15
1091,-0.2467,0.2808,0.9155,-0.1487,64.72,189.11,148.54,339.74
1092,-0.2703,0.2337,0.9243,-0.1344,68.45,188.49,154.24,340.22
1093,-0.2705,0.1303,0.953,-0.0399,63.47,180.37,164.53,339.95
1094,-0.3755,0.1058,0.9137,0.1138,82.92,157.45,158.16,340.15
1095,-0.5584,0.0253,0.8016,0.2119,124.4,127.89,143.51,342.4
1096,-0.7485,-0.0146,0.6028,0.2759,131.14,48.72,72.99,344.6
1097,-0.8405,-0.0365,0.4584,0.2864,104.66,19.22,47.15,342.94
1098,-0.8353,-0.1567,0.4191,0.3196,106.31,0.58,42.17,341.8
1099,-0.7205,-0.2561,0.4509,0.4604,124.64,5.71,68.61,344.16
1100,-0.725,-0.2342,0.4397,0.4756,118.69,8.88,71.6,342.84
1101,-0.7334,-0.2792,0.3564,0.5071,107.4,355.34,66.96,345.93
1102,-0.7864,-0.3681,0.1382,0.4764,69.23,327.08,51.9,344.67
1103,-0.8121,-0.425,-0.0895,0.3896,21.42,309.32,46.17,346.29
1104,-0.7987,-0.4494,-0.2759,0.2899,339.25,296.82,46.29,346.56
1105,-0.7718,-0.4743,-0.3818,0.1832,310.88,286.51,45.17,347.18
1106,-0.7385,-0.4946,-0.4472,0.1,291.68,277.7,45.49,346.31
1107,-0.7581,-0.4912,-0.4128,0.1163,298.46,281.85,42.64,344.73
1108,-0.7644,-0.4889,-0.4034,0.1183,299.87,283.12,41.66,347.57
1109,-0.7668,-0.4855,-0.3936,0.1462,305.0,284.28,43.12,346.31
1110,-0.7376,-0.4754,-0.4674,0.1074,288.05,277.89,48.15,346.55
1111,-0.6963,-0.4909,-0.5226,0.0319,271.71,267.75,50.97,346.17
1112,-0.6544,-0.4878,-0.5767,-0.0351,255.82,256.73,57.24,346.56
1113,-0.5499,-0.4431,-0.6976,-0.1214,237.98,220.99,90.31,345.0
1114,-0.4261,-0.4229,-0.7784,-0.1832,250.14,187.52,119.06,345.86
1115,-0.2765,-0.384,-0.8524,-0.2224,280.09,167.44,136.08,347.07
1116,-0.2676,-0.3825,-0.8641,-0.188,285.35,171.31,135.18,344.93
1117,-0.2786,-0.4035,-0.8527,-0.18,283.32,173.99,131.44,346.27
1118,-0.3075,-0.3922,-0.8527,-0.1565,279.33,178.07,131.31,344.82
1119,-0.4407,-0.3742,-0.8116,-0.0841,257.78,197.93,121.87,344.33
1120,-0.5185,-0.3574,-0.7736,-0.0711,242.93,209.95,113.36,344.81
1121,-0.5501,-0.3503,-0.7565,-0.0493,239.82,218.54,107.44,345.41
1122,-0.5344,-0.3299,-0.7767,-0.0488,240.86,213.14,114.64,346.38
1123,-0.5397,-0.3147,-0.7803,-0.0264,241.59,215.66,115.36,346.27
1124,-0.5476,-0.3074,-0.7773,-0.0378,238.02,214.96,115.83,346.9
1125,-0.5224,-0.2982,-0.7972,-0.0523,240.46,206.94,123.31,346.03
1126,-0.5025,-0.3056,-0.8075,-0.0457,245.84,205.41,124.56,345.26
1127,-0.5777,-0.3539,-0.7352,-0.0225,240.14,228.58,99.43,345.18
1128,-0.6715,-0.4,-0.6236,-0.0183,243.13,259.25,64.95,345.86
1129,-0.6967,-0.3857,-0.6032,-0.0452,237.82,267.0,56.31,345.34
1130,-0.6899,-0.3542,-0.6286,-0.0588,229.28,264.32,60.89,345.18
1131,-0.6595,-0.3282,-0.6736,-0.0606,223.69,250.73,76.75,345.86
1132,-0.6814,-0.3147,-0.6596,-0.0391,225.1,259.76,70.68,345.18
1133,-0.7071,-0.2889,-0.6451,-0.0203,224.97,270.11,64.13,345.34
1134,-0.6529,-0.2694,-0.7077,0.0164,227.49,248.62,90.31,345.01
1135,-0.6216,-0.2349,-0.7436,0.0749,234.47,241.82,104.81,344.93
1136,-0.6566,-0.189,-0.7156,0.1447,235.46,258.13,98.18,345.18
1137,-0.7265,-0.1405,-0.6463,0.1867,235.12,285.7,78.15,345.36
1138,-0.7441,-0.1371,-0.6203,0.2066,239.89,292.72,73.11,346.1
1139,-0.7198,-0.1442,-0.6473,0.2052,238.47,284.27,80.84,348.61
1140,-0.6453,-0.1658,-0.7207,0.1917,239.89,259.17,103.0,346.86
1141,-0.5133,-0.1809,-0.8186,0.1837,258.61,230.18,130.06,346.27
1142,-0.4722,-0.1637,-0.8405,0.2092,267.01,227.34,136.63,346.03
1143,-0.4939,-0.1362,-0.8213,0.2509,264.04,234.76,135.21,347.78
1144,-0.5218,-0.1741,-0.8096,0.2048,258.64,234.1,128.54,347.49
1145,-0.4832,-0.1981,-0.8338,0.1789,265.39,226.25,132.08,345.46
1146,-0.406,-0.2303,-0.8729,0.1423,279.94,214.65,137.47,347.11
1147,-0.4114,-0.2217,-0.872,0.1457,278.49,215.19,138.03,346.03
1148,-0.4175,-0.2241,-0.87,0.1362,276.57,214.62,137.57,346.44
1149,-0.4228,-0.2572,-0.8625,0.1061,275.14,212.87,133.73,346.54
1150,-0.3523,-0.2802,-0.8904,0.0678,287.78,203.2,137.41,344.83
1151,-0.2635,-0.2889,-0.9201,0.025,303.88,192.98,141.88,347.02
1152,-0.2166,-0.2854,-0.9335,-0.0151,311.21,186.02,144.7,346.2
1153,-0.0946,-0.2677,-0.9555,-0.0794,334.19,174.04,149.37,343.94
1154,-0.114,-0.2738,-0.951,-0.0875,329.3,173.81,148.71,346.71
1155,-0.0619,-0.2725,-0.9545,-0.1045,339.82,170.31,148.99,344.92
1156,-0.0403,-0.2845,-0.9526,-0.1001,344.62,170.25,147.4,346.13
1157,-0.0552,-0.2938,-0.9508,-0.0812,342.42,172.91,146.2,345.23
1158,-0.159,-0.3592,-0.919,-0.0353,322.97,182.98,136.82,345.62
1159,-0.1679,-0.3848,-0.9065,-0.045,320.36,182.9,133.49,343.86
1160,-0.0316,-0.376,-0.9205,-0.1018,344.52,170.5,136.21,343.18
1161,0.0047,-0.3679,-0.9233,-0.1098,351.74,168.07,136.98,344.25
1162,0.0377,-0.3494,-0.9255,-0.1416,356.65,163.23,138.88,342.91
1163,0.0198,-0.3492,-0.9226,-0.1629,351.14,161.62,139.26,343.0
1164,0.0343,-0.3646,-0.9119,-0.1853,351.67,158.66,137.2,345.86
1165,0.0952,-0.3461,-0.9075,-0.2181,2.5,152.49,137.94,343.78
1166,0.0577,-0.3506,-0.9118,-0.2057,355.53,155.42,138.42,343.84
1167,-0.0053,-0.3776,-0.9071,-0.1857,342.77,160.32,136.29,344.81
1168,-0.0391,-0.3919,-0.902,-0.177,335.84,162.83,134.86,344.33
1169,-0.1084,-0.4321,-0.885,-0.1358,323.98,171.13,129.36,343.96
1170,-0.1,-0.4382,-0.8823,-0.14,325.19,170.39,128.65,342.97
1171,-0.0745,-0.4309,-0.8881,-0.1412,330.57,168.88,129.67,344.93
1172,-0.048,-0.4186,-0.8912,-0.1681,333.84,164.55,131.46,343.88
1173,-0.0507,-0.442,-0.8785,-0.1742,331.87,164.38,128.52,342.2
1174,-0.0463,-0.4644,-0.8698,-0.1599,333.52,166.02,125.43,344.37
1175,-0.0133,-0.4599,-0.8735,-0.1593,340.45,164.34,125.81,342.71
1176,0.0603,-0.4525,-0.871,-0.1813,353.24,158.22,125.75,344.05
1177,0.0389,-0.4945,-0.8559,-0.1462,351.06,163.17,120.63,342.23
1178,-0.0094,-0.5506,-0.8287,-0.1003,345.51,170.96,113.37,343.48
1179,0.0306,-0.5639,-0.8164,-0.1207,350.12,166.56,111.31,342.47
1180,0.0536,-0.5721,-0.8076,-0.1331,352.47,163.93,109.91,341.52
1181,0.0427,-0.5846,-0.8016,-0.118,352.03,166.14,108.28,342.2
1182,0.0335,-0.5924,-0.7978,-0.1071,351.58,167.81,107.25,341.7
1183,0.0094,-0.598,-0.7965,-0.0885,349.57,171.2,106.6,341.38
1184,0.0347,-0.5894,-0.7951,-0.1391,347.51,164.72,107.74,342.2
1185,0.0276,-0.5943,-0.7863,-0.1667,342.21,162.63,107.19,343.18
1186,-0.0259,-0.5914,-0.7928,-0.1453,335.41,168.2,107.83,341.93
1187,-0.0464,-0.5785,-0.8001,-0.1516,331.08,168.76,109.7,340.58
1188,-0.0305,-0.5549,-0.8086,-0.193,329.44,163.23,113.34,341.52
1189,-0.1998,-0.5811,-0.7832,-0.0945,309.98,185.33,105.67,341.74
1190,-0.2388,-0.5519,-0.7924,-0.1024,301.12,186.68,108.53,341.29
1191,-0.2258,-0.5491,-0.7948,-0.126,300.36,183.15,109.88,341.47
1192,-0.1695,-0.5333,-0.811,-0.1707,305.62,173.8,114.84,342.67
1193,-0.1204,-0.4907,-0.8318,-0.2298,309.6,163.03,122.74,342.88
1194,-0.1835,-0.4826,-0.8265,-0.2245,297.35,166.88,123.14,341.08
1195,-0.2132,-0.4969,-0.8064,-0.2396,288.82,167.6,120.72,341.34
1196,-0.2102,-0.4845,-0.8014,-0.2807,284.98,161.92,123.87,340.7
1197,-0.2176,-0.452,-0.8068,-0.312,281.43,156.65,129.92,341.03
1198,-0.2856,-0.4203,-0.8058,-0.3042,268.56,159.0,133.84,341.61
1199,-0.2266,-0.347,-0.8372,-0.3568,282.33,145.59,147.43,341.87
1200,-0.2189,-0.3177,-0.8311,-0.4005,283.61,137.92,153.33,343.18
1201,-0.239,-0.3172,-0.8176,-0.4168,278.13,135.44,154.98,341.7
1202,-0.2723,-0.3296,-0.8021,-0.417,269.26,135.84,154.57,341.34
1203,-0.1988,-0.3006,-0.8019,-0.4765,285.49,125.91,158.43,342.02
1204,-0.0505,-0.2246,-0.7893,-0.5693,320.8,111.6,161.62,340.93
1205,0.1032,-0.1395,-0.7421,-0.6475,356.85,98.06,160.08,340.93
1206,0.2881,0.0191,-0.6565,-0.6969,47.77,81.36,155.68,341.24
1207,0.5298,0.2991,-0.4109,-0.6789,114.6,26.51,118.73,341.75
1208,0.681,0.5729,0.0285,-0.4551,57.74,292.98,48.17,339.78
1209,0.6305,0.6476,0.3984,-0.1557,325.0,260.57,48.33,339.39
1210,0.4851,0.6053,0.6152,0.1406,259.8,220.23,71.51,338.87
1211,0.307,0.4955,0.7042,0.4053,246.96,151.1,125.5,337.13
1212,0.208,0.3772,0.7097,0.5575,268.58,114.7,154.25,336.67
1213,0.2201,0.3589,0.6638,0.6182,265.23,101.84,162.43,334.57
1214,0.2421,0.3917,0.6014,0.6529,253.23,92.89,164.95,332.91
1215,0.2011,0.3788,0.5742,0.6974,261.2,85.27,166.27,333.59
1216,0.1531,0.3775,0.5652,0.7173,268.76,83.76,162.78,331.86
1217,0.1232,0.3929,0.5562,0.7218,270.45,84.14,158.59,331.11
1218,0.0531,0.3392,0.5701,0.7464,290.94,81.63,158.08,332.12
1219,-0.0101,0.2682,0.5932,0.759,313.45,80.45,158.71,331.13
1220,-0.0462,0.2149,0.6233,0.7504,329.28,82.22,159.53,331.71
1221,-0.0171,0.2281,0.6597,0.7159,324.59,88.47,160.02,329.69
1222,0.0061,0.258,0.6881,0.6782,318.01,94.92,158.19,330.64
1223,-0.0296,0.2194,0.7108,0.6676,330.94,96.34,158.71,330.28
1224,-0.0791,0.1583,0.7275,0.6629,349.13,96.27,160.32,332.64
1225,-0.0815,0.1161,0.7497,0.6464,356.8,98.69,163.76,329.96
1226,-0.0691,0.0939,0.7611,0.6381,358.32,100.14,166.64,332.38
1227,-0.075,0.0543,0.7655,0.6367,5.24,100.26,169.69,332.05
1228,-0.0988,0.0001,0.7613,0.6408,17.28,99.27,172.64,331.72
1229,-0.1234,-0.0399,0.7545,0.6434,27.48,98.38,174.17,331.1
1230,-0.1696,-0.0688,0.745,0.6414,39.88,97.31,172.97,331.55
1231,-0.2143,-0.1055,0.7339,0.6359,53.33,96.38,172.43,329.58
1232,-0.2618,-0.1172,0.7215,0.6302,63.4,94.63,169.11,330.23
1233,-0.2957,-0.13,0.7134,0.6218,71.41,93.65,167.03,329.63
1234,-0.3373,-0.1737,0.6996,0.6055,86.04,93.07,166.92,329.43
1235,-0.3592,-0.1808,0.6964,0.5944,91.33,92.9,165.49,327.46
1236,-0.3754,-0.173,0.696,0.5872,93.05,92.39,163.1,327.79
1237,-0.3696,-0.1581,0.7097,0.5785,90.07,94.66,163.28,328.47
1238,-0.3831,-0.1895,0.7066,0.564,98.08,96.15,165.48,328.23
1239,-0.3819,-0.2161,0.7134,0.5463,102.7,100.27,169.95,327.05
1240,-0.3613,-0.2323,0.7305,0.531,101.51,106.07,175.99,327.7
1241,-0.3472,-0.2341,0.7486,0.5141,99.01,110.77,179.42,328.04
1242,-0.3287,-0.2144,0.7733,0.498,92.42,114.59,180.36,328.87
1243,-0.3259,-0.2195,0.7861,0.4771,92.42,118.7,182.83,328.97
1244,-0.3362,-0.2211,0.7928,0.4578,94.69,121.57,183.61,325.94
1245,-0.3325,-0.2276,0.8021,0.4408,94.44,125.08,186.09,327.54
1246,-0.3246,-0.2331,0.8111,0.4272,93.05,128.08,188.42,327.05
1247,-0.3176,-0.2222,0.8231,0.415,90.04,129.94,188.32,327.79
1248,-0.332,-0.2217,0.8273,0.3953,92.86,132.65,188.7,328.3
1249,-0.356,-0.229,0.8253,0.3738,98.71,135.82,189.89,326.63
1250,-0.3401,-0.2037,0.8469,0.3544,92.18,138.25,188.62,326.36
1251,-0.3159,-0.1716,0.8719,0.3325,83.36,140.86,186.86,327.45
1252,-0.2103,-0.117,0.9169,0.3185,54.79,142.95,185.2,327.51
1253,-0.0105,-0.0499,0.9535,0.2972,5.69,145.5,185.11,327.33
1254,0.1097,0.0128,0.9625,0.2478,334.88,150.94,181.74,329.17
1255,0.2632,0.0795,0.9434,0.1853,296.52,158.78,176.46,328.74
1256,0.3839,0.1442,0.9044,0.1178,266.5,171.41,165.6,329.19
1257,0.3895,0.1721,0.9022,0.0683,266.85,180.91,158.01,331.55
1258,0.392,0.1714,0.9033,0.0316,268.05,186.39,155.8,331.9
1259,0.4317,0.1613,0.8874,-0.0104,260.58,194.12,152.83,329.58
1260,0.4908,0.1687,0.8531,-0.0531,249.94,206.56,143.61,332.95
1261,0.475,0.1858,0.8569,-0.0742,256.27,209.46,140.96,332.68
1262,0.4502,0.2016,0.8655,-0.0872,263.82,209.84,140.22,334.58
1263,0.4677,0.2043,0.8536,-0.1044,261.81,214.34,137.01,332.32
1264,0.4814,0.1966,0.8466,-0.1136,259.21,216.78,136.07,332.15
1265,0.4526,0.1874,0.8643,-0.1141,264.61,213.04,140.59,333.68
1266,0.4895,0.1947,0.8413,-0.1212,258.12,218.76,134.92,332.04
1267,0.5975,0.1978,0.7644,-0.14,241.8,241.28,113.86,332.79
1268,0.6576,0.1998,0.7098,-0.154,238.58,259.69,96.48,333.36
1269,0.6051,0.2038,0.7526,-0.1611,244.63,246.18,110.22,335.12
1270,0.5485,0.2021,0.7925,-0.1738,253.91,235.8,121.79,333.68
1271,0.4894,0.1919,0.8345,-0.1648,262.19,224.78,132.88,333.28
1272,0.5421,0.15,0.8085,-0.1732,248.91,231.49,130.48,334.03
1273,0.629,0.1359,0.7458,-0.1722,233.9,250.75,112.28,334.31
1274,0.66,0.0908,0.717,-0.2049,229.17,263.83,105.65,333.75
1275,0.763,-0.0318,0.5955,-0.2494,224.79,319.28,64.11,333.99
1276,0.9117,-0.1987,0.2692,-0.2382,288.31,16.79,23.81,335.1
1277,0.9381,-0.3061,-0.0611,-0.15,2.61,36.35,18.59,336.78
1278,0.8053,-0.3933,-0.4433,-0.0168,88.97,65.34,31.78,336.25
1279,0.3997,-0.3239,-0.8369,0.1868,104.38,185.03,140.14,336.6
1280,-0.156,-0.1494,-0.9121,0.3485,339.2,223.93,157.2,337.53
1281,-0.6358,0.1035,-0.6524,0.3992,228.36,288.12,114.51,337.6
1282,-0.8778,0.3276,-0.1677,0.3066,300.63,32.93,29.55,340.37
1283,-0.8302,0.4078,0.3723,0.076,67.58,61.99,31.14,339.86
1284,-0.4707,0.3927,0.7661,-0.1928,121.56,171.24,120.57,338.23
1285,0.0613,0.2385,0.8883,-0.3876,8.71,226.05,151.79,336.04
1286,0.5176,0.046,0.7432,-0.4215,266.14,260.82,132.35,331.87
1287,0.7617,-0.0426,0.5612,-0.321,236.15,321.14,69.6,329.42
1288,0.9246,-0.1002,0.3331,-0.1552,279.36,6.17,16.79,327.99
1289,0.9824,-0.151,0.1081,0.0213,336.22,17.93,355.63,327.31
1290,0.9683,-0.1992,-0.0138,0.1503,9.94,22.52,343.34,325.39
1291,0.9347,-0.2627,-0.0697,0.2289,29.03,28.31,336.16,322.87
1292,0.9006,-0.31,-0.129,0.276,47.6,32.17,332.88,324.24
1293,0.8702,-0.3443,-0.1892,0.2971,64.55,35.16,332.77,322.57
1294,0.85,-0.3801,-0.2175,0.2929,72.66,40.08,335.62,323.82
1295,0.8412,-0.4161,-0.2218,0.2646,72.79,46.37,341.11,325.27
1296,0.8384,-0.4456,-0.2229,0.2211,69.6,52.18,347.91,323.78
1297,0.8407,-0.4817,-0.2028,0.1414,57.0,58.92,357.23,326.96
1298,0.835,-0.532,-0.1398,0.0125,28.56,65.95,7.58,328.89
1299,0.7974,-0.5818,-0.0451,-0.1536,347.73,71.29,17.41,328.69
1300,0.6968,-0.6243,0.0742,-0.3453,295.39,75.65,27.37,332.37
1301,0.5135,-0.6289,0.2232,-0.5394,229.61,74.91,40.62,335.53
1302,0.2692,-0.5946,0.3439,-0.675,197.8,291.37,197.08,339.26
1303,0.0157,-0.5554,0.4158,-0.72,251.24,273.66,228.95,343.44
1304,-0.2192,-0.5104,0.462,-0.6914,299.58,273.45,243.7,347.19
1305,-0.439,-0.4375,0.478,-0.6223,345.65,279.28,256.5,350.23
1306,-0.6456,-0.3238,0.4471,-0.5276,27.27,293.69,272.56,351.3
1307,-0.8148,-0.1865,0.3641,-0.4108,52.23,317.81,296.26,354.42
1308,-0.9271,-0.0542,0.2417,-0.2812,49.37,344.92,322.93,354.86
1309,-0.9813,0.0505,0.1082,-0.1512,26.31,3.92,342.94,357.05
1310,-0.9908,0.1313,-0.0156,-0.0297,357.35,15.14,356.38,358.51
1311,-0.9742,0.1835,-0.1118,0.0687,331.88,20.66,5.49,1.42
1312,-0.9518,0.2157,-0.1734,0.1321,314.45,23.31,11.04,359.62
1313,-0.9329,0.2339,-0.2206,0.1621,301.65,24.7,13.2,1.52
1314,-0.9218,0.2287,-0.2675,0.1625,290.84,23.99,12.43,2.29
1315,-0.9179,0.2002,-0.3154,0.1335,281.52,21.46,8.83,2.59
1316,-0.9266,0.1533,-0.3356,0.0726,279.79,17.93,2.37,3.16
1317,-0.9468,0.0901,-0.3088,-0.0082,288.65,12.49,354.97,0.55
1318,-0.9708,0.0016,-0.22,-0.0959,309.48,2.87,348.07,0.37
1319,-0.975,-0.1,-0.0874,-0.1784,336.22,350.37,340.27,359.08
1320,-0.9481,-0.1859,0.0554,-0.2519,1.3,337.64,330.12,357.04
1321,-0.8994,-0.2411,0.1841,-0.3148,20.67,326.04,318.25,355.54
1322,-0.8392,-0.2744,0.2913,-0.3682,33.34,315.2,305.71,356.69
1323,-0.7801,-0.2838,0.3782,-0.4097,41.91,306.3,293.88,353.95
1324,-0.7287,-0.2735,0.4498,-0.4381,49.15,299.35,283.45,352.13
1325,-0.6898,-0.2442,0.5093,-0.4529,57.55,294.39,274.64,354.31
1326,-0.661,-0.1988,0.5617,-0.4562,68.26,290.51,266.73,352.56
1327,-0.634,-0.1428,0.6106,-0.4526,80.32,286.24,258.28,354.54
1328,-0.6098,-0.0717,0.655,-0.4404,94.73,281.2,248.7,354.2
1329,-0.5835,0.0047,0.6926,-0.424,108.64,273.98,236.85,354.73
1330,-0.5521,0.0834,0.7211,-0.4103,119.68,263.86,221.47,355.09
1331,-0.5056,0.1577,0.7452,-0.4052,123.61,250.16,201.71,356.1
1332,-0.4408,0.2209,0.7674,-0.4099,118.09,237.62,182.49,355.82
1333,-0.3613,0.2681,0.7867,-0.4227,105.35,231.02,168.94,355.53
1334,-0.2726,0.2988,0.8013,-0.4408,88.92,229.59,160.48,355.58
1335,-0.1667,0.3156,0.8028,-0.4776,69.38,233.57,155.0,357.23
1336,-0.051,0.3179,0.7834,-0.5316,49.4,241.78,150.75,357.01
1337,0.0526,0.3151,0.7484,-0.5813,33.42,250.57,146.2,357.25
1338,0.1203,0.3177,0.7054,-0.6221,26.06,258.33,142.14,356.31
1339,0.157,0.3266,0.6621,-0.656,25.49,264.7,139.11,354.41
1340,0.1807,0.3281,0.6172,-0.6919,26.71,271.34,137.68,354.34
1341,0.1912,0.3261,0.5666,-0.7322,30.23,278.66,137.72,354.03
1342,0.1876,0.326,0.5185,-0.7679,35.66,285.21,138.87,355.69
1343,0.1646,0.3366,0.4802,-0.7931,44.14,289.68,140.9,354.39
1344,0.1305,0.3519,0.4495,-0.8106,53.9,293.0,143.69,353.5
1345,0.0975,0.3602,0.4325,-0.8208,60.91,295.15,146.83,353.05
1346,0.0553,0.3711,0.4382,-0.8168,67.81,294.22,149.95,353.69
1347,-0.0344,0.4022,0.4489,-0.7972,84.46,291.67,155.57,351.01
1348,-0.1537,0.4162,0.4582,-0.7702,102.88,292.0,166.57,352.87
1349,-0.2796,0.4016,0.4598,-0.741,116.94,299.14,184.95,353.98
1350,-0.3947,0.3713,0.4554,-0.7064,124.27,311.46,208.0,351.74
1351,-0.4902,0.3374,0.4495,-0.6662,125.82,323.94,230.17,349.05
1352,-0.5621,0.3117,0.4469,-0.6222,125.83,333.16,247.58,352.46
1353,-0.6122,0.2932,0.4519,-0.5788,126.43,338.65,259.98,354.73
1354,-0.6402,0.2786,0.4604,-0.5483,127.01,340.61,266.77,351.29
1355,-0.6562,0.2727,0.458,-0.5341,126.34,343.08,271.26,351.11
1356,-0.6745,0.2727,0.4399,-0.5264,123.43,348.41,277.13,353.68
1357,-0.6907,0.2728,0.419,-0.5224,119.52,353.06,281.81,350.5
1358,-0.7081,0.2701,0.3957,-0.5187,114.41,357.04,285.94,350.94
1359,-0.7368,0.2723,0.3588,-0.5042,106.9,3.79,293.14,351.53
1360,-0.7725,0.2762,0.3178,-0.4754,97.8,10.92,301.77,352.18
1361,-0.8077,0.2745,0.2779,-0.4416,87.47,15.9,309.08,351.51
1362,-0.8352,0.2731,0.2427,-0.411,78.1,19.3,314.5,352.32
1363,-0.8556,0.28,0.2124,-0.3801,70.39,22.87,319.43,349.35
1364,-0.8706,0.291,0.1879,-0.3495,64.08,26.28,323.92,351.35
1365,-0.8851,0.298,0.1654,-0.317,57.59,28.84,328.14,351.11
1366,-0.9037,0.3028,0.1271,-0.2748,46.67,31.33,332.8,353.0
1367,-0.9199,0.3013,0.0995,-0.2304,37.55,32.49,337.4,353.39
1368,-0.9308,0.29,0.0986,-0.1993,34.81,31.64,340.8,352.9
1369,-0.9374,0.2742,0.112,-0.1832,36.17,29.84,342.74,350.96
1370,-0.9397,0.2619,0.1285,-0.1784,39.15,28.28,343.47,349.75
1371,-0.9391,0.2549,0.1411,-0.1825,41.96,27.22,343.14,352.26
1372,-0.9367,0.2507,0.1485,-0.1939,44.11,26.4,341.84,352.13
1373,-0.9326,0.2497,0.1531,-0.2109,46.02,25.84,339.86,350.9
1374,-0.9258,0.2523,0.159,-0.2322,48.6,25.57,337.43,353.62
1375,-0.9178,0.2585,0.163,-0.2536,50.97,25.72,335.01,351.64
1376,-0.9103,0.2667,0.1633,-0.2713,52.47,26.26,333.03,350.4
1377,-0.9028,0.2761,0.1639,-0.2861,53.99,27.02,331.44,351.24
1378,-0.8942,0.2876,0.1694,-0.2984,56.66,27.99,330.29,353.0
1379,-0.883,0.3044,0.1768,-0.3105,60.17,29.63,329.38,350.64
1380,-0.8673,0.3237,0.1903,-0.3268,65.6,31.34,328.15,352.46
1381,-0.8491,0.3452,0.2063,-0.3427,71.86,33.32,327.13,354.96
1382,-0.83,0.3642,0.2288,-0.3551,79.35,35.06,326.68,351.41
1383,-0.8128,0.3727,0.2535,-0.3691,86.81,35.19,325.55,353.57
1384,-0.8011,0.3749,0.2713,-0.3796,92.0,34.63,324.36,352.41
1385,-0.7961,0.3752,0.2799,-0.3836,94.34,34.26,323.88,352.32
1386,-0.7945,0.3727,0.2865,-0.3844,95.77,33.69,323.68,351.6
1387,-0.7927,0.3652,0.2975,-0.3868,97.92,32.1,322.9,354.5
1388,-0.7942,0.3577,0.303,-0.3866,98.57,30.79,322.49,354.45
1389,-0.7972,0.3424,0.31,-0.3888,99.0,28.0,321.12,352.61
1390,-0.783,0.3137,0.345,-0.4116,105.98,20.14,314.66,353.31
1391,-0.7472,0.2728,0.401,-0.4543,115.82,4.67,299.98,351.53
1392,-0.6993,0.2216,0.4579,-0.5022,119.3,342.74,278.68,353.68
1393,-0.6323,0.1548,0.5256,-0.5476,113.08,316.43,253.95,354.22
1394,-0.5375,0.061,0.5928,-0.5966,90.47,294.3,233.92,351.81
1395,-0.4422,-0.0311,0.6231,-0.6444,61.47,284.94,225.08,353.89
1396,-0.3738,-0.1051,0.6013,-0.6983,35.26,285.5,222.87,349.74
1397,-0.328,-0.1539,0.5415,-0.7586,13.99,291.65,222.02,350.5
1398,-0.3019,-0.1795,0.4498,-0.8212,357.35,302.07,221.1,348.74
1399,-0.2979,-0.1831,0.3349,-0.875,346.12,315.55,220.45,350.42
1400,-0.3116,-0.1706,0.2085,-0.9112,339.14,330.36,220.52,346.91
1401,-0.3371,-0.1539,0.0889,-0.9245,334.03,344.03,221.9,345.85
1402,-0.3733,-0.1459,-0.0103,-0.9161,328.08,354.63,225.1,343.39
1403,-0.4179,-0.1303,-0.0784,-0.8957,325.2,1.9,229.73,342.12
1404,-0.4713,-0.1132,-0.1191,-0.8665,324.08,6.01,236.14,342.14
1405,-0.5318,-0.0969,-0.1237,-0.8321,325.95,6.18,244.24,344.05
1406,-0.5856,-0.0696,-0.1093,-0.8002,332.31,5.52,251.72,343.1
1407,-0.6274,-0.0384,-0.0969,-0.7717,339.17,5.91,257.68,343.26
1408,-0.6624,-0.0138,-0.0901,-0.7436,343.93,6.71,262.92,345.7
1409,-0.6899,0.0098,-0.0943,-0.7177,346.67,8.62,267.23,344.78
1410,-0.7134,0.042,-0.1009,-0.6922,350.15,11.56,271.23,343.91
1411,-0.7346,0.0664,-0.0944,-0.6687,354.28,12.95,275.05,343.44
1412,-0.7494,0.0963,-0.0915,-0.6487,358.6,15.24,278.14,344.34
1413,-0.7561,0.1335,-0.1004,-0.6328,1.96,19.21,280.31,344.46
1414,-0.7606,0.1548,-0.1033,-0.622,4.06,21.35,281.83,347.02
1415,-0.7669,0.1604,-0.0899,-0.6148,6.8,20.93,283.19,347.88
1416,-0.7702,0.1633,-0.0754,-0.6119,9.61,20.18,283.93,348.07
1417,-0.7683,0.1596,-0.0728,-0.6156,9.72,19.64,283.44,347.26
1418,-0.7616,0.1599,-0.0837,-0.6224,8.21,20.4,282.22,348.35
1419,-0.7559,0.1589,-0.0962,-0.6278,6.2,21.2,281.16,345.45
1420,-0.7552,0.1458,-0.0989,-0.6314,3.99,20.2,280.56,345.6
1421,-0.758,0.1301,-0.1106,-0.6295,359.56,19.66,280.54,343.97
1422,-0.7617,0.1185,-0.125,-0.6246,355.13,19.69,280.88,345.08
1423,-0.7622,0.1078,-0.1355,-0.6237,351.73,19.53,280.7,345.86
1424,-0.7584,0.105,-0.1441,-0.6269,350.03,19.95,279.97,344.98
1425,-0.754,0.1053,-0.144,-0.6322,350.36,20.0,279.19,344.76
1426,-0.7508,0.1006,-0.1326,-0.6393,351.91,18.75,278.51,343.32
1427,-0.7456,0.1002,-0.1254,-0.6468,353.42,18.19,277.59,345.12
1428,-0.7391,0.1065,-0.1219,-0.6539,355.31,18.48,276.62,344.31
1429,-0.734,0.11,-0.1187,-0.6596,356.66,18.55,275.84,343.42
1430,-0.7283,0.1097,-0.1181,-0.666,357.03,18.49,274.87,345.61
1431,-0.7216,0.1102,-0.1182,-0.6732,357.47,18.56,273.77,342.42
1432,-0.7149,0.1141,-0.1192,-0.6795,358.24,18.97,272.76,342.58
1433,-0.71,0.1166,-0.1198,-0.6841,358.78,19.24,272.02,343.74
1434,-0.7054,0.1188,-0.1154,-0.6891,0.12,19.07,271.35,342.26
1435,-0.701,0.1259,-0.1108,-0.6932,2.2,19.27,270.83,345.46
1436,-0.6992,0.1335,-0.1049,-0.6945,4.44,19.43,270.77,341.97
1437,-0.6989,0.1373,-0.0964,-0.6953,6.45,19.06,270.84,344.34
1438,-0.6986,0.1449,-0.091,-0.6948,8.5,19.25,271.03,343.32
1439,-0.6996,0.1572,-0.0874,-0.6916,10.93,20.02,271.62,345.86
1440,-0.7028,0.1598,-0.0782,-0.6888,12.65,19.54,272.24,344.93
1441,-0.7059,0.1542,-0.0678,-0.688,13.38,18.25,272.55,343.89
1442,-0.7077,0.1505,-0.058,-0.6878,14.36,17.16,272.72,345.23
1443,-0.7084,0.1466,-0.0487,-0.6887,15.27,16.1,272.7,343.06
1444,-0.709,0.1423,-0.0439,-0.6893,15.4,15.35,272.65,343.32
1445,-0.709,0.1415,-0.0434,-0.6895,15.36,15.24,272.63,345.31
1446,-0.7091,0.1394,-0.0416,-0.6899,15.34,14.92,272.57,344.2
1447,-0.7077,0.1353,-0.0354,-0.6925,15.77,14.05,272.22,345.5
1448,-0.7034,0.1322,-0.0277,-0.6978,16.75,13.12,271.42,341.95
1449,-0.6968,0.1335,-0.0218,-0.7045,18.14,12.68,270.38,342.47
1450,-0.6894,0.1336,-0.0138,-0.7118,19.7,11.94,269.2,343.73
1451,-0.6832,0.1289,-0.002,-0.7187,21.04,10.49,268.06,346.48
1452,-0.6773,0.1252,0.0093,-0.7249,22.39,9.16,267.01,344.65
1453,-0.6697,0.12,0.0192,-0.7326,23.24,7.78,265.66,344.92
1454,-0.6602,0.1125,0.0301,-0.742,23.87,6.1,263.96,343.04
1455,-0.6485,0.1053,0.0391,-0.7529,24.15,4.56,261.96,345.22
1456,-0.635,0.1023,0.0498,-0.7641,25.36,3.16,259.8,344.14
1457,-0.6204,0.1025,0.0625,-0.7751,27.35,1.78,257.56,342.58
1458,-0.6055,0.1046,0.0758,-0.7853,29.67,0.45,255.33,344.58
1459,-0.5899,0.1076,0.0856,-0.7957,31.6,359.45,253.02,342.22
1460,-0.5748,0.1118,0.0928,-0.8053,33.33,358.75,250.86,343.42
1461,-0.5613,0.1119,0.1022,-0.8136,34.54,357.56,248.83,341.43
1462,-0.5491,0.1109,0.1106,-0.821,35.33,356.4,246.99,343.17
1463,-0.5387,0.1153,0.1178,-0.8262,37.01,355.74,245.51,343.88
1464,-0.5272,0.1148,0.129,-0.832,38.18,354.32,243.76,344.92
1465,-0.513,0.1087,0.1415,-0.8396,38.26,352.33,241.56,345.08
1466,-0.5004,0.1064,0.15,-0.8461,38.55,351.02,239.67,341.92
1467,-0.4936,0.1107,0.1516,-0.8492,39.46,350.95,238.76,343.76
1468,-0.4923,0.1132,0.1546,-0.849,40.3,350.75,238.57,342.62
1469,-0.4904,0.109,0.1592,-0.8499,39.92,349.97,238.2,343.14
1470,-0.4863,0.1076,0.1606,-0.8521,39.7,349.64,237.61,343.6
1471,-0.4828,0.1106,0.1587,-0.8541,40.03,349.93,237.18,344.92
1472,-0.4814,0.1099,0.1595,-0.8548,39.94,349.78,236.97,343.99
1473,-0.4844,0.1071,0.1608,-0.8532,39.59,349.56,237.34,344.36
1474,-0.4929,0.1096,0.1578,-0.8486,39.94,350.21,238.57,343.69
1475,-0.5014,0.1084,0.1535,-0.8446,39.39,350.8,239.79,342.99
1476,-0.5075,0.1048,0.1492,-0.8421,38.3,351.18,240.66,343.42
1477,-0.5138,0.104,0.1414,-0.8397,37.31,352.08,241.62,342.42
1478,-0.5239,0.1087,0.1305,-0.8347,37.11,353.7,243.2,342.53
1479,-0.5375,0.1113,0.1229,-0.8268,36.87,354.94,245.24,344.51
1480,-0.5511,0.1087,0.1197,-0.8186,36.11,355.41,247.17,343.13
1481,-0.5645,0.1091,0.1166,-0.8098,35.92,356.04,249.13,342.62
1482,-0.5779,0.1125,0.1126,-0.8004,36.14,356.98,251.18,343.91
1483,-0.5884,0.1069,0.113,-0.7934,35.23,356.78,252.63,343.2
1484,-0.5935,0.0939,0.116,-0.7908,33.25,355.69,253.15,343.44
1485,-0.5958,0.0893,0.1181,-0.7894,32.72,355.22,253.4,342.71
1486,-0.5975,0.0837,0.1162,-0.789,31.45,355.03,253.59,345.76
1487,-0.5993,0.0738,0.1121,-0.7892,29.04,354.76,253.76,342.67
1488,-0.6009,0.0672,0.1036,-0.7897,26.68,355.11,253.96,343.2
1489,-0.6011,0.0701,0.0946,-0.7905,25.95,356.16,254.06,343.6
1490,-0.5988,0.0692,0.0957,-0.7921,25.9,355.96,253.72,341.43
1491,-0.5944,0.0648,0.1042,-0.7948,26.23,354.78,252.98,343.88
1492,-0.5918,0.0669,0.1114,-0.7955,27.57,354.21,252.59,341.57
1493,-0.5909,0.0662,0.1198,-0.7951,28.58,353.34,252.4,344.65
1494,-0.5885,0.0628,0.1248,-0.7963,28.59,352.6,252.01,342.53
1495,-0.5853,0.0724,0.1249,-0.7979,30.35,353.18,251.61,342.72
1496,-0.5802,0.0856,0.1277,-0.7998,33.14,353.71,251.0,343.57
1497,-0.574,0.0881,0.1366,-0.8026,34.69,352.89,250.06,342.44
1498,-0.5713,0.0897,0.1433,-0.8031,35.87,352.29,249.64,342.4
1499,-0.5733,0.1,0.1432,-0.8005,37.85,353.05,250.06,343.18
1500,-0.5745,0.1039,0.1483,-0.7982,39.31,352.84,250.25,344.17
1501,-0.5736,0.0983,0.1567,-0.798,39.35,351.62,249.97,344.92
1502,-0.575,0.0986,0.1569,-0.7968,39.47,351.65,250.18,344.05
1503,-0.5805,0.1027,0.153,-0.7931,39.83,352.46,251.07,344.65
1504,-0.5867,0.0954,0.1537,-0.7893,38.66,352.04,251.89,343.6
1505,-0.5932,0.0871,0.1513,-0.7859,36.89,351.85,252.77,343.44
1506,-0.5999,0.0914,0.1437,-0.7818,36.77,353.04,253.87,341.63
1507,-0.6022,0.0896,0.1435,-0.7802,36.44,352.98,254.19,343.26
1508,-0.5999,0.0796,0.1468,-0.7824,35.0,351.92,253.71,344.03
1509,-0.6003,0.0797,0.1454,-0.7824,34.82,352.05,253.78,343.99
1510,-0.6039,0.0823,0.1435,-0.7797,35.13,352.5,254.36,343.44
1511,-0.6063,0.0781,0.1461,-0.7778,34.74,352.02,254.65,341.97
1512,-0.609,0.0782,0.1469,-0.7755,34.95,352.01,255.06,343.61
1513,-0.6121,0.081,0.1482,-0.7726,35.71,352.16,255.54,341.83
1514,-0.6117,0.0719,0.1513,-0.7732,34.48,351.21,255.36,342.99
1515,-0.5802,0.4103,0.169,-0.683,98.33,22.03,270.88,342.45
1516,-0.58,0.2775,0.2262,-0.7317,83.91,359.29,256.53,344.6
1517,-0.5784,0.013,0.1635,-0.7991,24.22,345.41,250.24,346.12
1518,-0.5794,0.0781,0.1664,-0.7941,36.94,349.45,250.51,343.3
1519,-0.5815,0.0902,0.1666,-0.7912,39.31,350.3,250.94,343.61
1520,-0.5829,0.0772,0.1661,-0.7916,36.82,349.5,251.02,344.03
1521,-0.5852,0.0591,0.1657,-0.7916,33.42,348.37,251.23,344.65
1522,-0.5958,0.0779,0.1296,-0.7888,32.2,353.33,253.19,343.88
1523,-0.6295,0.0715,0.0495,-0.7721,19.9,0.79,258.45,344.65
1524,-0.6739,0.0652,-0.1179,-0.7264,352.63,15.05,265.22,341.04
1525,-0.7019,0.0531,-0.3595,-0.6126,307.85,34.98,269.43,340.65
1526,-0.7199,-0.0069,-0.5385,-0.4378,257.22,47.7,273.38,340.27
1527,-0.6708,-0.0965,-0.698,-0.2314,202.34,87.91,245.14,337.62
1528,-0.5674,-0.1985,-0.7991,0.0113,231.07,214.37,130.04,341.28
1529,-0.4989,-0.2914,-0.7812,0.2364,280.16,239.4,115.67,334.68
1530,-0.429,-0.3672,-0.7196,0.4041,322.58,251.19,112.49,334.92
1531,-0.3362,-0.4413,-0.6274,0.5464,6.93,259.79,112.65,332.9
1532,-0.2683,-0.4759,-0.5062,0.6673,42.63,272.13,115.63,332.41
1533,-0.2145,-0.477,-0.3858,0.76,68.04,287.35,123.12,332.16
1534,-0.1621,-0.4713,-0.2837,0.8192,85.71,302.59,133.35,331.54
1535,-0.0998,-0.4819,-0.196,0.8481,102.22,316.93,145.21,330.85
1536,-0.0544,-0.4635,-0.1321,0.8745,105.55,332.27,158.91,330.73
1537,-0.0275,-0.4315,-0.1009,0.896,100.3,341.39,167.71,330.85
1538,-0.0011,-0.4531,-0.0759,0.8882,107.18,346.77,173.16,330.52
1539,0.0154,-0.4655,-0.0527,0.8833,110.97,352.0,177.79,330.19
1540,0.0225,-0.4462,-0.047,0.8934,106.13,353.9,179.83,330.36
1541,0.03,-0.464,-0.0475,0.884,110.83,354.32,180.91,329.8
1542,0.0407,-0.4997,-0.032,0.8647,120.16,358.31,184.42,331.77
1543,0.0652,-0.5392,0.0235,0.8393,128.87,14.74,198.21,329.32
1544,0.0806,-0.5273,0.0721,0.8428,122.61,25.47,206.19,329.23
1545,0.0367,-0.5091,0.0742,0.8567,120.18,19.27,196.13,329.12
1546,0.0005,-0.5189,0.0554,0.853,124.56,11.8,187.22,329.29
1547,-0.0199,-0.4796,0.0411,0.8763,114.74,5.63,180.48,329.88
1548,-0.0219,-0.4261,0.0296,0.9039,101.0,3.14,178.71,329.45
1549,-0.0173,-0.3739,0.0002,0.9273,87.82,359.01,177.46,330.55
1550,-0.0237,-0.3457,-0.0205,0.9378,80.7,355.88,175.58,329.58
1551,-0.0334,-0.3395,-0.015,0.9399,79.16,356.22,174.57,330.61
1552,-0.0408,-0.3071,-0.0003,0.9508,71.46,358.19,174.5,329.71
1553,-0.0377,-0.2933,0.0282,0.9549,68.42,2.2,176.15,328.37
1554,-0.0286,-0.2751,0.0643,0.9588,64.17,7.3,178.69,329.21
1555,-0.0153,-0.2399,0.0975,0.9658,55.59,11.81,181.12,327.87
1556,-0.005,-0.226,0.123,0.9663,51.95,15.18,182.93,328.48
1557,0.0011,-0.2402,0.1467,0.9596,54.86,18.54,184.7,327.31
1558,0.0124,-0.2268,0.1632,0.9601,51.11,20.71,186.23,329.32
1559,0.0126,-0.261,0.2047,0.9433,58.33,26.73,188.6,328.38
1560,0.0204,-0.3511,0.283,0.8923,75.91,41.21,197.35,327.43
1561,0.0061,-0.2624,0.2661,0.9275,57.83,34.58,189.93,328.33
1562,-0.0113,-0.2873,0.2066,0.9352,65.65,26.89,186.67,326.94
1563,-0.0202,-0.2701,0.1703,0.9474,62.48,21.39,183.6,328.37
1564,-0.0096,-0.2105,0.1546,0.9652,48.34,18.82,182.93,329.71
1565,0.0041,-0.1529,0.1273,0.98,34.75,15.24,182.82,328.21
1566,0.0344,-0.1106,0.0958,0.9886,24.48,11.63,185.23,329.53
1567,0.0594,-0.1044,0.0977,0.9879,22.46,12.09,188.08,329.09
1568,0.067,-0.108,0.0955,0.9873,23.14,11.96,188.98,328.1
1569,0.0725,-0.1385,0.0978,0.9828,29.91,12.7,190.11,329.58
1570,0.0778,-0.1401,0.1002,0.982,30.09,13.08,190.8,330.38
1571,0.0816,-0.1343,0.1069,0.9818,28.51,13.83,191.24,327.5
1572,0.0817,-0.1478,0.123,0.9779,31.2,15.95,191.75,329.27
1573,0.0841,-0.1517,0.1343,0.9756,31.74,17.39,192.3,328.64
1574,0.0869,-0.1506,0.1355,0.9754,31.35,17.56,192.62,327.99
1575,0.0715,-0.2218,0.1763,0.9563,47.03,23.73,193.56,328.21
1576,0.071,-0.2616,0.2268,0.9355,54.41,31.25,196.43,329.09
1577,0.0491,-0.1624,0.1879,0.9674,34.41,23.4,189.4,329.58
1578,0.0135,-0.2046,0.1519,0.9669,46.1,18.98,185.5,326.54
1579,-0.0025,-0.204,0.1416,0.9687,46.65,17.31,183.3,327.68
1580,-0.0026,-0.1711,0.1252,0.9773,39.15,15.0,182.3,329.35
1581,0.0107,-0.1453,0.0938,0.9849,33.02,11.3,182.89,328.36
1582,0.033,-0.0972,0.0904,0.9906,21.52,10.88,184.85,328.44
1583,0.0398,-0.0458,0.0884,0.9942,9.64,10.37,185.02,329.35
1584,0.0346,-0.0512,0.075,0.9953,11.1,8.83,184.41,329.39
1585,0.0305,-0.0897,0.0731,0.9928,20.01,8.8,184.29,328.43
1586,0.0319,-0.0934,0.0875,0.9913,20.69,10.51,184.65,328.66
1587,0.0404,-0.076,0.1006,0.9912,16.4,11.99,185.53,328.27
1588,0.0441,-0.0855,0.1152,0.9887,18.3,13.79,186.21,327.89
1589,0.0471,-0.0925,0.1356,0.9853,19.52,16.25,186.87,328.76
1590,0.0539,-0.071,0.1479,0.985,14.24,17.54,187.37,328.33
1591,0.0492,-0.1024,0.1696,0.9789,21.17,20.37,187.67,329.09
1592,0.0458,-0.2085,0.236,0.948,43.88,30.2,191.52,327.48
1593,0.0308,-0.1339,0.2288,0.9637,28.26,27.59,187.14,328.81
1594,0.0105,-0.135,0.1828,0.9738,30.02,21.81,184.14,326.54
1595,0.005,-0.1264,0.1653,0.9781,28.44,19.57,183.05,327.99
1596,0.0218,-0.0816,0.1673,0.9823,17.6,19.65,184.07,328.19
1597,0.0494,-0.0605,0.1574,0.9844,11.89,18.51,186.71,327.53
1598,0.0719,-0.0346,0.128,0.9886,5.72,14.98,188.7,328.38
1599,0.0728,-0.032,0.0943,0.9924,5.7,11.07,188.67,328.17
1600,0.0724,-0.0557,0.0927,0.9915,11.13,11.11,188.9,329.09
1601,0.0777,-0.0394,0.1037,0.9908,7.1,12.24,189.35,329.78
1602,0.0851,-0.0199,0.1021,0.9909,2.52,11.88,189.95,328.73
1603,0.0887,-0.0233,0.0996,0.9908,3.26,11.63,190.4,327.67
1604,0.0909,-0.0328,0.1117,0.989,5.12,13.13,190.8,327.66
1605,0.0955,-0.0162,0.121,0.9879,1.02,14.02,191.1,330.49
1606,0.098,-0.0122,0.1244,0.9873,359.96,14.36,191.34,329.35
1607,0.0911,-0.0513,0.1426,0.9842,8.6,16.91,191.21,329.35
1608,0.0864,-0.0875,0.1928,0.9735,15.75,23.22,191.77,327.84
1609,0.0879,-0.0066,0.177,0.9803,357.92,20.38,190.06,328.29
1610,0.0691,-0.0285,0.1248,0.9894,4.48,14.54,188.28,327.89
1611,0.0522,-0.0408,0.114,0.9913,7.9,13.35,186.49,328.89
1612,0.0504,-0.0177,0.0981,0.9937,2.91,11.36,185.96,330.73
1613,0.0646,-0.0214,0.0734,0.995,3.78,8.56,187.57,326.91
1614,0.083,-0.0066,0.0656,0.9944,0.25,7.56,189.55,328.38
1615,0.1052,0.0306,0.0788,0.9909,351.14,8.63,191.79,328.48
1616,0.1121,0.0402,0.0632,0.9909,349.23,6.7,192.6,329.62
1617,0.1116,0.0035,0.0529,0.9923,357.86,5.98,192.78,328.19
1618,0.1127,-0.0099,0.0489,0.9924,0.99,5.69,192.99,327.87
1619,0.1168,-0.0139,0.0554,0.9915,1.67,6.49,193.48,329.45
1620,0.1217,-0.0132,0.0636,0.9904,1.23,7.42,194.05,328.95
1621,0.1271,-0.0122,0.0691,0.9894,0.76,8.04,194.67,328.33
1622,0.1306,-0.0224,0.076,0.9883,2.81,8.98,195.17,327.92
1623,0.1326,-0.032,0.0856,0.9869,4.63,10.23,195.51,328.21
1624,0.1302,-0.0388,0.0952,0.9861,5.93,11.43,195.34,327.43
1625,0.1187,-0.1145,0.1638,0.9726,21.19,20.6,195.85,328.81
1626,0.1031,-0.0718,0.1832,0.975,11.73,21.96,193.21,328.98
1627,0.0859,-0.0791,0.1562,0.9808,14.75,18.83,191.24,327.53
1628,0.0794,-0.0747,0.1288,0.9857,14.58,15.54,190.2,328.31
1629,0.0846,-0.0462,0.1196,0.9881,8.15,14.17,190.3,327.54
1630,0.1079,-0.0503,0.1204,0.9856,8.39,14.41,193.03,327.67
1631,0.1305,-0.0434,0.1201,0.9832,6.18,14.35,195.51,329.27
1632,0.1365,-0.0395,0.1163,0.983,5.26,13.86,196.13,329.09
1633,0.1402,-0.0561,0.1145,0.9819,8.95,13.97,196.8,329.82
1634,0.1447,-0.0538,0.1071,0.9822,8.57,13.1,197.25,326.72
1635,0.1466,-0.0565,0.1071,0.9818,9.11,13.15,197.51,328.72
1636,0.1509,-0.0443,0.1083,0.9816,6.23,13.08,197.84,328.87
1637,0.1582,-0.0266,0.104,0.9815,2.2,12.28,198.44,328.89
1638,0.1657,-0.0282,0.1042,0.9803,2.37,12.34,199.32,327.87
1639,0.1727,-0.0366,0.1118,0.9779,3.78,13.38,200.25,329.78
1640,0.1794,-0.0351,0.111,0.9769,3.3,13.27,201.01,329.76
1641,0.1724,-0.069,0.1395,0.9727,9.87,17.23,200.86,328.92
1642,0.167,-0.1124,0.215,0.9556,16.44,26.95,201.8,327.61
1643,0.1488,-0.0594,0.1998,0.9667,6.35,23.86,198.17,328.06
1644,0.131,-0.1088,0.1698,0.9707,19.19,21.3,197.18,326.54
1645,0.117,-0.1082,0.1703,0.9724,19.65,21.21,195.56,327.67
1646,0.1201,-0.079,0.1661,0.9756,13.12,20.2,195.2,328.64
1647,0.1376,-0.0719,0.1524,0.9761,11.3,18.59,196.97,329.32
1648,0.1718,-0.0383,0.134,0.9752,3.29,15.94,200.21,328.7
1649,0.2035,0.0224,0.1299,0.9702,348.95,14.13,203.0,326.96
1650,0.2095,0.0384,0.1207,0.9696,345.63,12.69,203.59,327.25
1651,0.2117,0.0051,0.1133,0.9707,353.36,12.6,204.24,327.61
1652,0.2145,-0.0185,0.1246,0.9686,357.97,14.44,204.85,329.29
1653,0.2229,-0.0072,0.1395,0.9648,354.45,15.83,205.64,327.61
1654,0.2305,0.0057,0.1404,0.9629,351.33,15.58,206.33,329.35
1655,0.2326,0.001,0.1447,0.9618,352.07,16.18,206.62,328.66
1656,0.2341,-0.0007,0.1531,0.9601,351.94,17.16,206.8,327.26
1657,0.2338,0.01,0.1526,0.9602,349.61,16.84,206.6,327.94
1658,0.2295,0.0029,0.1642,0.9594,350.73,18.34,206.15,329.04
1659,0.2087,-0.05,0.2273,0.9499,0.02,26.92,204.78,328.15
1660,0.1994,-0.021,0.2385,0.9502,353.67,27.54,202.92,328.1
1661,0.1915,-0.0431,0.1799,0.9639,1.62,21.31,202.63,329.59
1662,0.178,-0.0697,0.1672,0.9672,8.64,20.44,201.64,327.87
1663,0.1777,-0.0351,0.1602,0.9703,1.28,18.87,200.87,329.35
1664,0.1923,-0.0327,0.1488,0.9694,0.72,17.52,202.49,329.32
1665,0.2255,-0.0214,0.1266,0.9657,358.2,14.73,206.17,327.84
1666,0.2644,0.018,0.1184,0.9569,348.86,12.6,210.28,327.92
1667,0.2758,0.0352,0.1025,0.9551,345.79,10.24,211.57,326.54
1668,0.2727,-0.0083,0.0982,0.9571,355.69,11.1,211.6,328.38
1669,0.2723,-0.0326,0.115,0.9547,359.95,13.73,211.84,329.15
1670,0.278,-0.0117,0.1267,0.9521,354.48,14.37,212.2,329.06
1671,0.2849,-0.0084,0.1375,0.9486,352.84,15.43,212.95,327.87
1672,0.2862,-0.017,0.1518,0.9459,353.74,17.3,213.2,328.66
1673,0.2861,-0.014,0.1611,0.9445,352.46,18.24,213.1,330.79
1674,0.2867,-0.0034,0.161,0.9444,350.14,17.89,213.0,327.63
1675,0.2822,-0.0109,0.1678,0.9445,351.51,18.9,212.56,329.29
1676,0.2692,-0.0301,0.1988,0.9419,354.22,23.03,211.31,330.55
1677,0.2589,-0.0508,0.243,0.9335,356.46,28.69,210.55,328.31
1678,0.2331,-0.0138,0.1893,0.9538,352.9,21.61,206.79,327.79
1679,0.2119,-0.0637,0.1585,0.9622,6.36,19.43,205.39,326.54
1680,0.2015,-0.0491,0.1414,0.968,4.36,17.08,203.84,327.67
1681,0.2099,-0.0325,0.126,0.969,1.17,14.94,204.52,327.23
1682,0.2389,-0.0274,0.1107,0.9643,0.0,13.1,207.82,328.92
1683,0.2732,-0.0009,0.1103,0.9556,353.29,12.22,211.56,327.94
1684,0.2818,0.0155,0.1012,0.954,350.07,10.66,212.45,328.89
1685,0.2812,-0.0089,0.0874,0.9556,356.33,9.91,212.63,328.38
1686,0.2811,-0.0324,0.0908,0.9548,1.23,11.05,212.87,327.68
1687,0.2817,-0.0138,0.1025,0.9539,356.4,11.74,212.72,327.67
1688,0.286,0.0044,0.1155,0.9512,351.45,12.58,213.0,329.42
1689,0.29,0.0068,0.127,0.9485,350.07,13.76,213.4,328.54
1690,0.2958,0.0142,0.1367,0.9453,347.63,14.57,213.96,328.72
1691,0.3024,0.0228,0.1369,0.943,345.54,14.27,214.65,327.61
1692,0.3045,0.013,0.1392,0.9422,347.45,14.82,215.0,328.63
1693,0.2991,-0.0039,0.1494,0.9425,350.59,16.55,214.53,327.54
1694,0.285,-0.0213,0.1868,0.9399,352.39,21.35,213.02,327.33
1695,0.2496,-0.0449,0.2113,0.944,357.62,24.93,209.36,328.87
1696,0.231,-0.0549,0.1063,0.9656,6.53,13.36,207.3,327.89
1697,0.2225,-0.0845,0.0532,0.9698,16.12,8.17,206.43,329.95
1698,0.214,-0.0148,0.0127,0.9766,2.7,1.78,204.74,328.21
1699,0.224,-0.0065,-0.0073,0.9745,1.82,359.35,205.89,328.38
1700,0.2398,-0.0118,-0.0434,0.9698,5.02,355.49,207.68,330.19
1701,0.2459,0.0378,-0.0961,0.9638,357.06,348.24,208.78,327.2
1702,0.2229,0.0954,-0.1798,0.9533,348.33,337.21,207.5,326.91
1703,0.1931,0.136,-0.3124,0.9201,345.11,320.74,206.37,329.33
1704,0.1638,0.138,-0.4422,0.871,349.04,304.99,204.16,329.68
1705,0.1363,0.1125,-0.5466,0.8186,355.95,292.18,200.26,329.35
1706,0.0681,0.0994,-0.658,0.7433,353.33,276.57,193.44,329.76
1707,-0.0686,0.1101,-0.773,0.621,331.9,256.93,185.02,329.24
1708,-0.2091,0.1184,-0.8572,0.4554,304.41,235.76,180.81,327.99
1709,-0.281,0.1179,-0.9108,0.2785,289.44,212.69,184.1,330.72
1710,-0.3189,0.1252,-0.9319,0.1194,282.75,190.52,191.61,331.36
1711,-0.3787,0.1463,-0.9127,-0.0464,274.66,164.59,204.26,330.62
1712,-0.3999,0.1759,-0.8709,-0.2249,283.73,137.4,218.19,331.53
1713,-0.4077,0.2015,-0.7832,-0.4239,304.21,110.4,228.44,331.05
1714,-0.3866,0.2181,-0.6574,-0.609,331.91,87.6,231.35,332.77
1715,-0.3085,0.2446,-0.5121,-0.7633,6.59,69.12,226.28,335.97
1716,-0.2134,0.2523,-0.3572,-0.8736,33.52,49.84,215.29,336.44
1717,-0.1205,0.2297,-0.205,-0.9438,45.19,28.63,200.38,341.78
1718,-0.0173,0.2019,-0.0568,-0.9776,46.25,7.38,183.54,342.6
1719,0.081,0.2037,0.0737,-0.9729,45.21,348.99,168.28,342.25
1720,0.168,0.1934,0.2029,-0.9451,34.6,331.99,155.5,347.37
1721,0.2352,0.1461,0.3217,-0.9054,13.0,319.04,148.44,346.73
1722,0.2868,0.0916,0.419,-0.8566,350.44,309.37,145.25,347.75
1723,0.3101,0.0665,0.4874,-0.8135,337.62,301.74,144.51,350.29
1724,0.3163,0.048,0.5358,-0.7814,329.39,295.89,145.54,351.98
1725,0.312,0.0309,0.5613,-0.7659,324.74,292.71,147.46,352.42
1726,0.2943,0.0294,0.5759,-0.7622,325.79,290.52,149.68,351.8
1727,0.2736,0.0374,0.5811,-0.7656,329.77,289.48,151.38,353.44
1728,0.2649,0.0357,0.5669,-0.7792,331.67,291.46,152.12,352.49
1729,0.2509,0.0361,0.5506,-0.7953,334.71,293.63,153.27,352.91
1730,0.2273,0.0392,0.5372,-0.8113,339.19,295.26,155.3,354.96
1731,0.2083,0.0316,0.5126,-0.8324,341.48,298.6,157.41,352.26
1732,0.1964,0.0168,0.4716,-0.8595,342.02,304.17,159.03,353.05
1733,0.1701,0.0348,0.4313,-0.8853,350.24,308.89,160.58,352.75
1734,0.143,0.044,0.3907,-0.9083,356.35,313.72,162.89,352.91
1735,0.1214,0.0323,0.3461,-0.9297,357.26,319.34,165.63,351.31
1736,0.0986,0.0437,0.3004,-0.9477,2.7,324.68,167.68,349.32
1737,0.0803,0.058,0.2552,-0.9618,8.09,329.9,169.37,348.88
1738,0.0723,0.0475,0.2167,-0.9724,6.99,334.58,170.71,349.23
1739,0.0675,0.0383,0.1904,-0.9786,5.65,337.78,171.55,349.32
1740,0.0666,0.0384,0.1738,-0.9818,6.0,339.71,171.71,351.22
1741,0.0703,0.0332,0.1608,-0.9839,4.9,341.25,171.42,347.68
1742,0.0749,0.0166,0.1473,-0.9861,1.23,342.96,171.22,346.9
1743,0.074,0.0054,0.1435,-0.9869,358.8,343.5,171.51,346.49
1744,0.0691,0.0102,0.1489,-0.9864,359.94,342.83,171.99,347.28
1745,0.0643,0.0105,0.1551,-0.9857,0.08,342.11,172.53,349.34
1746,0.0594,-0.0001,0.1626,-0.9849,357.75,341.32,173.28,345.04
1747,0.0528,-0.0038,0.174,-0.9833,357.03,340.01,174.11,348.87
1748,0.045,0.0004,0.1879,-0.9812,358.15,338.36,174.93,348.15
1749,0.0387,0.0026,0.1957,-0.9799,358.85,337.43,175.59,348.55
1750,0.0348,0.0031,0.1971,-0.9798,359.12,337.26,176.02,346.8
1751,0.0335,0.0036,0.1994,-0.9793,359.28,336.99,176.15,347.97
1752,0.0322,0.0004,0.2059,-0.978,358.56,336.25,176.38,349.06
1753,0.0321,-0.009,0.2131,-0.9765,356.43,335.43,176.62,347.84
1754,0.0357,-0.0214,0.2134,-0.9761,353.47,335.44,176.52,349.23
1755,0.0362,-0.0229,0.2117,-0.9764,353.12,335.64,176.5,347.62
1756,0.0335,-0.0278,0.2111,-0.9765,352.15,335.7,176.92,347.29
1757,0.0319,-0.0336,0.21,-0.9766,350.95,335.84,177.23,347.65
1758,0.0311,-0.036,0.2116,-0.9762,350.43,335.65,177.39,349.76
1759,0.0309,-0.0429,0.2134,-0.9755,348.87,335.44,177.59,350.22
1760,0.0314,-0.0467,0.2085,-0.9764,348.02,336.02,177.59,347.58
1761,0.0294,-0.0429,0.2011,-0.9782,349.01,336.88,177.68,347.29
1762,0.0234,-0.0384,0.1975,-0.9793,350.31,337.27,178.24,346.91
1763,0.0156,-0.0361,0.1952,-0.98,351.19,337.5,179.05,346.02
1764,0.0109,-0.0309,0.1959,-0.9801,352.56,337.41,179.47,347.08
1765,0.0111,-0.0365,0.1985,-0.9794,351.3,337.11,179.58,346.08
1766,0.0113,-0.0475,0.2021,-0.9782,348.82,336.67,179.83,347.58
1767,0.0101,-0.0516,0.204,-0.9776,347.95,336.42,180.08,346.02
1768,0.0081,-0.0456,0.2031,-0.9781,349.38,336.53,180.15,348.4
1769,0.0056,-0.046,0.208,-0.977,349.42,335.94,180.47,347.47
1770,0.0059,-0.0532,0.2149,-0.9752,347.79,335.11,180.65,346.37
1771,0.0101,-0.056,0.2187,-0.9741,346.96,334.67,180.28,347.45
1772,0.0138,-0.0619,0.2183,-0.9738,345.44,334.72,180.01,346.13
1773,0.0124,-0.0717,0.2167,-0.9735,343.32,334.87,180.41,351.29
1774,0.0071,-0.0715,0.2152,-0.9739,343.63,335.01,180.98,347.62
1775,0.0044,-0.0651,0.2149,-0.9745,345.19,335.06,181.13,349.1
1776,0.0072,-0.0665,0.2106,-0.9753,344.74,335.58,180.8,346.6
1777,0.012,-0.065,0.1974,-0.9781,344.85,337.17,180.13,345.17
1778,0.0139,-0.0532,0.1768,-0.9827,347.44,339.62,179.51,346.9
1779,0.0122,-0.0363,0.1562,-0.987,351.34,342.05,179.26,346.37
1780,0.0094,-0.0176,0.1422,-0.9896,355.7,343.66,179.22,347.29
1781,0.0152,0.0092,0.1363,-0.9905,1.62,344.32,178.13,345.33
1782,0.0397,0.0162,0.1503,-0.9877,2.3,342.64,175.22,345.74
1783,0.0854,-0.013,0.1926,-0.9775,353.3,337.99,170.66,348.83
1784,0.1481,-0.0554,0.2564,-0.9536,339.07,331.28,165.03,344.57
1785,0.2271,-0.1142,0.3143,-0.9147,318.83,326.03,158.46,347.1
1786,0.3094,-0.172,0.3339,-0.8736,299.06,326.39,150.4,348.79
1787,0.375,-0.2142,0.3408,-0.8351,284.34,328.84,142.55,347.47
1788,0.4205,-0.2275,0.3343,-0.8122,278.81,332.42,135.63,347.18
1789,0.4486,-0.2162,0.3141,-0.8083,281.7,336.14,130.53,349.35
1790,0.458,-0.189,0.2927,-0.8178,289.47,338.02,128.56,349.62
1791,0.4448,-0.1499,0.2775,-0.8382,300.25,337.5,130.17,346.52
1792,0.4017,-0.0874,0.272,-0.8701,316.5,334.28,135.46,347.2
1793,0.331,-0.0176,0.263,-0.9061,336.22,331.63,142.88,346.34
1794,0.2388,0.0554,0.2667,-0.9321,357.23,328.41,151.66,343.37
1795,0.1473,0.1201,0.2718,-0.9434,16.85,326.34,159.7,347.7
1796,0.0694,0.1665,0.2815,-0.9425,31.89,324.84,166.5,343.51
1797,0.0026,0.196,0.2843,-0.9385,42.99,324.93,172.82,345.29
1798,-0.0633,0.2103,0.268,-0.938,50.76,328.2,180.39,347.42
1799,-0.1319,0.2246,0.2518,-0.9321,58.04,332.02,188.73,347.12
1800,-0.1998,0.2209,0.2361,-0.925,60.39,336.23,197.88,346.68
1801,-0.2635,0.2097,0.2204,-0.9154,60.02,340.23,206.77,347.42
1802,-0.3175,0.1961,0.2062,-0.9046,58.12,343.48,214.37,344.33
1803,-0.3636,0.1842,0.1946,-0.8922,56.1,346.02,220.84,345.21
1804,-0.3987,0.1582,0.1889,-0.8834,50.95,346.71,225.57,344.96
1805,-0.4183,0.1202,0.1913,-0.8798,43.61,345.27,228.0,346.58
1806,-0.4309,0.1024,0.1929,-0.8756,40.43,344.58,229.65,345.19
1807,-0.4464,0.1037,0.1913,-0.8679,41.07,345.18,231.74,347.21
1808,-0.4637,0.069,0.1968,-0.8611,35.08,343.25,234.01,347.52
1809,-0.4826,0.0476,0.1994,-0.8515,31.75,342.22,236.59,346.12
1810,-0.4994,0.0477,0.2062,-0.8401,33.25,341.83,238.78,345.75
1811,-0.511,0.0397,0.2221,-0.8294,34.05,339.94,240.25,347.37
1812,-0.5181,0.0252,0.2379,-0.8212,33.46,337.62,241.17,348.73
1813,-0.5298,0.0335,0.23,-0.8156,34.71,339.15,242.8,346.12
1814,-0.5407,0.0365,0.226,-0.8094,35.34,339.97,244.34,346.44
1815,-0.547,0.0271,0.2286,-0.8049,34.16,339.27,245.25,348.73
1816,-0.5542,0.0413,0.2269,-0.7998,37.03,340.46,246.22,346.23
1817,-0.5568,0.0542,0.2329,-0.7955,40.43,340.7,246.5,347.86
1818,-0.551,0.0532,0.2433,-0.7965,41.33,339.41,245.55,349.07
1819,-0.5435,0.0598,0.2512,-0.7987,43.26,338.8,244.37,346.44
1820,-0.5384,0.0669,0.2626,-0.798,45.84,337.86,243.47,345.49
1821,-0.5317,0.075,0.2792,-0.7961,49.2,336.35,242.25,346.77
1822,-0.5179,0.0941,0.2967,-0.7968,54.43,335.03,239.9,349.52
1823,-0.4956,0.1062,0.3228,-0.7993,58.64,331.9,236.11,347.21
1824,-0.4667,0.1075,0.351,-0.8046,60.09,327.55,231.3,348.07
1825,-0.4389,0.1204,0.3655,-0.812,62.16,325.27,226.84,349.47
1826,-0.4153,0.1288,0.3782,-0.8173,63.27,323.1,223.07,347.97
1827,-0.398,0.1276,0.3909,-0.8201,62.72,320.81,220.36,349.05
1828,-0.3889,0.1394,0.3911,-0.8224,64.48,320.77,218.86,349.55
1829,-0.3797,0.1583,0.3849,-0.8262,67.27,321.72,217.39,350.76
1830,-0.3613,0.1619,0.3811,-0.8355,66.17,321.66,214.98,348.92
1831,-0.3392,0.1638,0.3765,-0.8464,64.39,321.56,212.19,345.74
1832,-0.3213,0.1718,0.3691,-0.855,64.15,322.08,209.91,348.73
1833,-0.3029,0.1698,0.3685,-0.8623,62.15,321.54,207.63,344.65
1834,-0.2845,0.1642,0.3783,-0.8655,59.93,319.62,205.15,348.0
1835,-0.2705,0.1718,0.383,-0.8664,60.65,318.61,202.99,347.37
1836,-0.2479,0.1724,0.38,-0.8743,58.66,318.38,200.29,350.31
1837,-0.2188,0.161,0.3733,-0.8871,53.36,318.52,197.45,348.38
1838,-0.1967,0.1596,0.3605,-0.8977,50.73,319.69,195.27,347.91
1839,-0.1831,0.1603,0.3519,-0.9038,49.5,320.51,193.89,348.36
1840,-0.1759,0.1523,0.3469,-0.9086,47.01,321.02,193.5,347.16
1841,-0.1765,0.1571,0.343,-0.9091,48.01,321.54,193.49,345.17
1842,-0.1778,0.1633,0.3419,-0.9082,49.45,321.71,193.45,347.16
1843,-0.174,0.1587,0.3438,-0.9091,48.16,321.38,193.12,348.88
1844,-0.1696,0.1581,0.3424,-0.9105,47.66,321.46,192.67,348.78
1845,-0.1662,0.1661,0.3411,-0.9102,49.13,321.54,192.02,346.49
1846,-0.1603,0.1629,0.3438,-0.9108,48.03,321.07,191.36,347.45
1847,-0.1579,0.1594,0.3474,-0.9105,47.15,320.56,191.13,347.55
1848,-0.161,0.1663,0.3506,-0.9075,48.99,320.18,191.13,346.62
1849,-0.1608,0.1645,0.3533,-0.9068,48.65,319.82,191.1,348.92
1850,-0.1598,0.1589,0.3553,-0.9072,47.38,319.57,191.14,350.16
1851,-0.161,0.1575,0.3544,-0.9075,47.16,319.71,191.37,349.11
1852,-0.1639,0.1808,0.2988,-0.9226,51.14,326.94,192.44,348.36
1853,-0.1694,0.4463,0.4361,-0.7628,111.93,293.27,166.48,345.62
1854,-0.1039,0.266,0.4774,-0.831,65.55,298.61,174.45,349.37
1855,-0.1206,0.1598,0.3532,-0.9139,44.33,319.05,186.67,350.23
1856,-0.1433,0.1976,0.3671,-0.8976,54.76,317.28,187.26,347.65
1857,-0.1707,0.2267,0.351,-0.8924,63.25,319.86,189.84,350.42
1858,-0.1883,0.2236,0.3493,-0.8902,63.96,320.66,192.2,347.73
1859,-0.2016,0.2222,0.3632,-0.8821,65.15,319.15,193.32,346.14
1860,-0.2164,0.2522,0.3804,-0.8631,73.74,316.82,193.12,347.62
1861,-0.2186,0.2598,0.3959,-0.8532,76.12,314.46,192.26,348.64
1862,-0.2202,0.2659,0.4053,-0.8465,77.91,312.97,191.67,348.6
1863,-0.2306,0.3063,0.4068,-0.8292,88.14,312.06,190.69,349.25
1864,-0.244,0.3502,0.4031,-0.8095,99.59,311.73,190.05,352.68
1865,-0.2514,0.3768,0.4007,-0.7964,106.58,311.35,189.47,350.31
1866,-0.2606,0.4175,0.4077,-0.7692,117.45,307.91,186.68,350.96
1867,-0.2798,0.4508,0.4234,-0.7343,128.05,302.46,183.82,352.35
1868,-0.3142,0.4759,0.437,-0.6955,139.01,298.12,183.46,351.45
1869,-0.3672,0.5262,0.4441,-0.6254,159.63,287.04,177.36,352.82
1870,-0.4179,0.5405,0.4608,-0.5665,171.87,262.75,159.64,353.39
1871,-0.4696,0.5489,0.4813,-0.4966,171.31,150.28,54.85,357.76
1872,-0.514,0.5415,0.507,-0.4307,161.99,129.97,42.77,355.42
1873,-0.5453,0.5036,0.5515,-0.3807,160.04,131.77,54.01,354.96
1874,-0.5828,0.4591,0.5921,-0.3147,156.5,127.04,60.31,357.09
1875,-0.6366,0.4043,0.6119,-0.2383,152.73,108.79,54.32,359.14
1876,-0.6984,0.3492,0.6056,-0.1531,144.69,85.74,43.61,358.09
1877,-0.7477,0.281,0.5977,-0.0695,137.74,69.26,40.06,357.27
1878,-0.7739,0.191,0.6038,-0.0078,139.28,55.35,38.93,358.5
1879,-0.8018,0.1122,0.5852,0.046,136.27,38.87,33.41,358.5
1880,-0.8088,0.0406,0.578,0.1005,135.89,28.98,33.93,356.94
1881,-0.8283,-0.0463,0.5394,0.1443,130.18,10.81,26.68,355.73
1882,-0.8148,-0.1088,0.5393,0.1828,133.45,2.88,27.19,354.63
1883,-0.7954,-0.1448,0.5404,0.233,136.01,3.29,34.87,354.29
1884,-0.7918,-0.2122,0.5102,0.2604,133.37,349.76,29.66,353.01
1885,-0.7712,-0.277,0.5007,0.2789,135.89,336.8,24.01,352.26
1886,-0.7567,-0.3511,0.4699,0.2885,132.08,320.14,15.22,353.05
1887,-0.7368,-0.4385,0.429,0.2841,123.63,301.58,5.16,350.43
1888,-0.7037,-0.4971,0.4137,0.2941,122.0,289.71,0.31,348.33
1889,-0.6852,-0.5586,0.3676,0.2887,111.44,280.82,358.47,349.85
1890,-0.6629,-0.6258,0.3018,0.2791,97.08,273.01,359.34,347.52
1891,-0.652,-0.6503,0.2543,0.2954,91.43,272.04,4.48,346.94
1892,-0.6514,-0.6703,0.1968,0.2959,81.56,271.81,9.25,348.2
1893,-0.6219,-0.7075,0.181,0.2827,77.39,265.11,7.03,346.55
1894,-0.5936,-0.7239,0.2147,0.2785,82.3,259.27,1.51,348.3
1895,-0.5856,-0.7224,0.2255,0.2904,86.26,258.5,1.12,346.13
1896,-0.5951,-0.7345,0.1749,0.2754,75.57,259.79,5.14,346.39
1897,-0.5975,-0.743,0.1356,0.2695,68.45,260.2,8.38,344.96
1898,-0.6012,-0.7325,0.134,0.29,71.74,262.27,10.84,346.67
1899,-0.6207,-0.7094,0.1206,0.3114,72.53,267.47,15.5,348.65
1900,-0.6231,-0.6956,0.1097,0.3404,75.21,270.59,20.04,346.02
1901,-0.6201,-0.6834,0.1023,0.3715,78.78,273.34,24.53,347.26
1902,-0.6238,-0.6647,0.0917,0.4008,80.67,277.51,29.74,347.94
1903,-0.6226,-0.6587,0.0677,0.4171,78.65,279.16,33.78,347.86
1904,-0.6201,-0.6501,0.0589,0.4352,79.4,281.08,37.01,347.42
1905,-0.6201,-0.634,0.0661,0.4572,82.88,284.47,40.14,347.19
1906,-0.6206,-0.6235,0.0642,0.4712,83.7,286.72,42.67,349.84
1907,-0.6189,-0.6198,0.0688,0.4775,85.24,287.57,43.42,346.02
1908,-0.6211,-0.6064,0.0859,0.4889,88.81,290.46,44.78,348.44
1909,-0.6218,-0.5937,0.0946,0.502,91.08,293.31,46.95,348.78
1910,-0.6214,-0.5927,0.0905,0.5044,90.52,293.53,47.57,348.26
1911,-0.6217,-0.5826,0.0935,0.5151,91.52,295.8,49.63,347.19
1912,-0.6234,-0.5698,0.094,0.5272,91.77,298.59,52.22,347.35
1913,-0.6245,-0.5634,0.0886,0.5335,90.78,299.83,53.78,345.21
1914,-0.6274,-0.5514,0.0888,0.5427,90.45,302.28,55.86,345.58
1915,-0.6287,-0.5416,0.0866,0.5513,89.81,304.23,57.82,347.11
1916,-0.6287,-0.5361,0.0813,0.5574,88.85,305.23,59.24,346.29
1917,-0.6292,-0.5259,0.0821,0.5663,88.69,307.3,61.15,348.26
1918,-0.63,-0.5134,0.0811,0.577,88.0,309.72,63.5,346.95
1919,-0.6287,-0.5067,0.0763,0.585,87.05,310.92,65.21,344.92
1920,-0.6292,-0.4963,0.0714,0.5939,85.58,312.65,67.19,347.42
1921,-0.6329,-0.4831,0.066,0.6014,83.3,314.59,68.99,346.51
1922,-0.6349,-0.4701,0.0624,0.6099,81.49,316.57,70.88,346.84
1923,-0.6415,-0.4592,0.0496,0.6125,77.53,317.33,71.7,346.51
1924,-0.666,-0.4297,0.0366,0.6087,69.76,319.96,71.8,347.21
1925,-0.6801,-0.3781,0.0663,0.6246,68.45,328.55,75.22,346.67
1926,-0.683,-0.4041,0.0237,0.6079,63.17,322.1,72.25,344.05
1927,-0.6915,-0.3896,0.017,0.608,59.63,323.32,72.55,349.47
1928,-0.6955,-0.3679,0.0168,0.617,57.03,326.03,74.28,346.77
1929,-0.6859,-0.3498,0.0279,0.6375,57.93,329.48,77.75,347.97
1930,-0.6817,-0.3274,0.0367,0.6533,57.09,333.03,80.58,347.73
1931,-0.6748,-0.3295,0.0248,0.6599,55.86,332.21,81.68,347.86
1932,-0.6658,-0.3307,0.0168,0.6687,55.37,331.85,83.18,348.35
1933,-0.6585,-0.3188,0.0248,0.6812,55.67,334.11,85.42,345.3
1934,-0.6541,-0.3115,0.024,0.6889,54.84,335.05,86.79,348.83
1935,-0.6517,-0.3001,0.0259,0.6961,53.7,336.55,88.1,345.85
1936,-0.6494,-0.2898,0.0273,0.7025,52.56,337.85,89.27,345.91
1937,-0.6477,-0.2814,0.0253,0.7076,51.06,338.63,90.17,345.1
1938,-0.6468,-0.2722,0.0197,0.7122,48.81,339.16,90.96,347.52
1939,-0.6468,-0.2633,0.0113,0.7157,46.09,339.36,91.53,347.52
1940,-0.6517,-0.2478,0.0041,0.7168,42.28,340.12,91.7,347.02
1941,-0.6675,-0.219,-0.0085,0.7117,34.96,341.39,90.79,346.02
1942,-0.6796,-0.1796,0.0082,0.7112,30.93,346.05,90.7,347.09
1943,-0.6792,-0.1954,-0.0213,0.7071,28.66,342.24,90.06,345.85
1944,-0.6817,-0.1799,-0.027,0.7086,25.21,343.11,90.34,347.37
1945,-0.6824,-0.1617,-0.0292,0.7123,21.95,344.5,90.95,346.75
1946,-0.6764,-0.1447,-0.0227,0.7218,20.52,346.57,92.51,346.12
1947,-0.667,-0.1372,-0.02,0.732,20.07,347.55,94.23,347.01
1948,-0.6583,-0.1511,-0.0294,0.7369,21.19,345.73,95.12,348.95
1949,-0.6523,-0.1484,-0.0321,0.7426,20.57,345.8,96.12,348.3
1950,-0.6485,-0.1353,-0.0207,0.7488,20.24,347.89,97.13,347.62
1951,-0.646,-0.1261,-0.0183,0.7526,19.13,348.86,97.78,346.94
1952,-0.6434,-0.1205,-0.0209,0.7557,17.86,349.12,98.33,347.76
1953,-0.6424,-0.1104,-0.021,0.7581,16.14,349.9,98.73,346.67
1954,-0.6415,-0.1005,-0.0206,0.7602,14.52,350.7,99.09,345.07
1955,-0.6408,-0.0937,-0.0254,0.7615,12.65,350.8,99.33,346.02
1956,-0.645,-0.0919,-0.0413,0.7575,9.86,349.52,98.72,346.8
1957,-0.6604,-0.0552,-0.0488,0.7473,2.06,351.62,96.99,346.94
1958,-0.6715,-0.0267,-0.0347,0.7397,359.19,355.0,95.56,346.18
1959,-0.6718,-0.047,-0.0632,0.7366,358.2,351.01,95.34,346.12
1960,-0.6711,-0.0376,-0.0652,0.7375,356.33,351.56,95.53,345.7
1961,-0.671,-0.0228,-0.0661,0.7382,353.68,352.63,95.66,346.02
1962,-0.6638,-0.0147,-0.0551,0.7457,354.14,354.15,96.81,345.85
1963,-0.6575,-0.0145,-0.0516,0.7516,354.73,354.45,97.77,346.95
1964,-0.6493,-0.0296,-0.0516,0.7582,357.46,353.29,98.92,346.3
1965,-0.641,-0.0383,-0.0582,0.7644,358.16,352.06,100.1,345.75
1966,-0.639,-0.0312,-0.0486,0.767,358.37,353.43,100.45,345.05
1967,-0.6364,-0.027,-0.0509,0.7692,357.33,353.52,100.87,347.21
1968,-0.6342,-0.0189,-0.053,0.7711,355.63,353.93,101.24,345.63
1969,-0.6331,-0.0088,-0.0501,0.7724,354.29,354.92,101.45,348.86
1970,-0.6319,-0.0029,-0.0483,0.7735,353.52,355.49,101.64,346.18
1971,-0.6303,0.0018,-0.0497,0.7747,352.5,355.7,101.88,346.41
1972,-0.6297,0.0098,-0.0548,0.7749,350.33,355.82,101.98,346.29
1973,-0.637,0.023,-0.0805,0.7663,344.16,354.56,100.9,345.22
1974,-0.6519,0.0696,-0.0722,0.7516,337.08,358.96,98.23,346.02
1975,-0.6514,0.0574,-0.0857,0.7517,337.18,356.84,98.49,345.17
1976,-0.6528,0.0563,-0.0955,0.7494,335.86,355.92,98.32,347.86
1977,-0.652,0.0712,-0.0915,0.7493,333.87,357.4,98.23,344.18
1978,-0.6476,0.0818,-0.0796,0.7533,333.83,359.17,98.72,347.62
1979,-0.6364,0.0813,-0.0679,0.764,335.69,359.99,100.41,345.07
1980,-0.6337,0.0746,-0.0707,0.7667,336.46,359.19,100.94,347.52
1981,-0.6267,0.0662,-0.0777,0.7726,336.96,357.83,102.12,345.74
1982,-0.6276,0.0744,-0.0656,0.7722,337.26,359.53,101.84,342.98
1983,-0.6297,0.0819,-0.0617,0.7701,336.48,0.47,101.41,346.68
1984,-0.6299,0.0873,-0.0622,0.7692,335.44,0.84,101.28,347.91
1985,-0.6259,0.0908,-0.0601,0.7722,335.11,1.22,101.82,346.02
1986,-0.6223,0.0939,-0.0596,0.7749,334.61,1.44,102.3,345.42
1987,-0.6194,0.1004,-0.0652,0.7759,332.62,1.37,102.63,343.13
