,time,acc_X,acc_Y,acc_Z,gyro_X,gyro_Y,gyro_Z,heading
0,0.4459,0.6348,-0.4608,0.4311,344.32,256.54,281.86,302.95
1,0.4424,0.6364,-0.4619,0.4312,343.88,256.17,281.74,305.12
2,0.439,0.6455,-0.4686,0.4135,345.95,254.06,282.73,302.24
3,0.4336,0.6569,-0.4796,0.3879,349.25,251.07,283.89,305.96
4,0.4253,0.6675,-0.4898,0.3657,351.79,248.17,284.68,306.96
5,0.4172,0.6749,-0.4956,0.3534,352.73,246.24,285.04,309.65
6,0.4117,0.6806,-0.4998,0.3427,353.7,244.74,285.42,305.69
7,0.4144,0.6814,-0.499,0.3392,354.42,244.72,285.8,305.74
8,0.4217,0.6773,-0.4954,0.3434,354.57,245.86,285.88,306.53
9,0.4227,0.6776,-0.4969,0.3394,355.42,245.64,286.02,303.69
10,0.4202,0.6812,-0.5002,0.3305,356.58,244.62,286.34,303.69
11,0.4212,0.682,-0.5008,0.3267,357.28,244.41,286.56,303.69
12,0.4228,0.6817,-0.4992,0.3277,357.17,244.67,286.68,306.96
13,0.422,0.6826,-0.4974,0.3296,356.55,244.73,286.74,306.96
14,0.4194,0.6849,-0.4984,0.3265,356.66,244.2,286.87,306.44
15,0.4145,0.6897,-0.5034,0.3148,358.05,242.72,287.16,311.67
16,0.4104,0.6947,-0.5081,0.3013,359.82,241.21,287.58,313.03
17,0.4148,0.6936,-0.5062,0.301,0.28,241.66,287.84,305.88
18,0.4216,0.6909,-0.502,0.3049,0.23,242.7,288.07,307.13
19,0.4281,0.6887,-0.4989,0.3056,0.71,243.47,288.38,306.87
20,0.431,0.6895,-0.4997,0.2984,2.2,243.23,288.82,305.28
21,0.4324,0.691,-0.5005,0.2915,3.43,242.86,289.22,309.98
22,0.4338,0.6917,-0.4991,0.2902,3.62,242.91,289.48,303.47
23,0.4338,0.6925,-0.498,0.2904,3.41,242.92,289.61,300.23
24,0.4311,0.6952,-0.4989,0.2862,3.7,242.31,289.79,307.57
25,0.4261,0.7,-0.5019,0.2766,4.63,241.04,290.08,303.18
26,0.4234,0.7024,-0.5044,0.27,5.48,240.25,290.22,305.69
27,0.4208,0.7048,-0.5061,0.2646,6.07,239.56,290.38,307.13
28,0.4192,0.7065,-0.5065,0.2619,6.26,239.19,290.5,308.02
29,0.42,0.7069,-0.5057,0.2612,6.37,239.22,290.65,309.26
30,0.4213,0.7081,-0.5061,0.2547,7.53,238.92,291.02,305.22
31,0.4197,0.7092,-0.5072,0.2523,7.78,238.56,291.04,310.96
32,0.4215,0.7073,-0.5035,0.2618,6.22,239.45,290.88,309.41
33,0.4241,0.7062,-0.5001,0.2672,5.37,240.13,290.95,308.45
34,0.4246,0.7066,-0.4996,0.2661,5.51,240.1,291.07,305.22
35,0.4219,0.7084,-0.5088,0.2477,8.98,238.47,291.14,305.58
36,0.4004,0.7185,-0.5234,0.2227,11.38,234.33,290.78,309.17
37,0.3987,0.718,-0.5219,0.2307,9.74,234.7,290.49,303.57
38,0.4231,0.7067,-0.5037,0.2606,6.65,239.54,290.95,304.55
39,0.4586,0.6825,-0.49,0.2896,6.21,245.65,290.65,307.52
40,0.455,0.6863,-0.5026,0.2632,11.02,243.29,290.97,307.6
41,0.4419,0.6964,-0.5281,0.2021,21.34,237.52,291.53,306.79
42,0.4169,0.7058,-0.545,0.176,23.78,232.89,290.58,303.33
43,0.4202,0.7043,-0.5334,0.2071,18.01,235.38,290.46,309.41
44,0.4573,0.6871,-0.4851,0.2889,5.36,245.46,291.28,305.26
45,0.4951,0.6579,-0.4446,0.3527,357.28,254.87,290.85,306.35
46,0.4804,0.6703,-0.4697,0.3152,3.3,250.13,291.12,301.11
47,0.4452,0.696,-0.5034,0.253,11.02,241.45,291.53,304.55
48,0.4376,0.7007,-0.5145,0.23,14.7,238.97,291.58,306.6
49,0.4286,0.706,-0.5176,0.2236,14.71,237.51,291.54,308.73
50,0.4338,0.7048,-0.5109,0.2325,13.27,238.74,291.85,306.44
51,0.4417,0.703,-0.5053,0.2352,13.29,239.84,292.41,308.0
52,0.4377,0.7051,-0.5096,0.227,14.49,238.81,292.37,308.31
53,0.4272,0.7101,-0.519,0.2095,16.78,236.42,292.18,306.79
54,0.4181,0.7141,-0.5276,0.192,19.23,234.21,292.01,304.7
55,0.4119,0.7169,-0.5333,0.1789,21.06,232.64,291.93,308.38
56,0.4105,0.718,-0.5351,0.1722,22.15,232.04,292.03,315.3
57,0.4098,0.7188,-0.5369,0.1645,23.48,231.46,292.16,309.7
58,0.4098,0.7191,-0.5383,0.1589,24.55,231.1,292.25,303.94
59,0.4109,0.7184,-0.5387,0.1579,24.93,231.15,292.25,306.96
60,0.4126,0.7173,-0.5386,0.1587,25.04,231.4,292.24,309.7
61,0.4133,0.7167,-0.539,0.1584,25.23,231.45,292.2,305.2
62,0.4125,0.7167,-0.5404,0.1556,25.74,231.17,292.14,307.44
63,0.4126,0.7163,-0.5415,0.1528,26.35,231.0,292.13,310.65
64,0.4134,0.7157,-0.5424,0.1505,26.94,230.93,292.12,308.47
65,0.4126,0.7157,-0.5439,0.1472,27.54,230.62,292.08,307.05
66,0.4096,0.7165,-0.5465,0.142,28.27,229.94,291.95,310.91
67,0.4082,0.7166,-0.5484,0.1381,28.94,229.52,291.85,308.38
68,0.4114,0.7151,-0.5478,0.1393,29.12,229.95,291.91,308.41
69,0.4155,0.7129,-0.547,0.1411,29.35,230.53,291.96,310.91
70,0.418,0.7114,-0.547,0.1411,29.73,230.81,291.98,305.69
71,0.417,0.7112,-0.5486,0.139,30.13,230.55,291.86,310.91
72,0.4148,0.7115,-0.5506,0.1365,30.44,230.12,291.68,307.44
73,0.4132,0.7115,-0.5525,0.1333,30.96,229.73,291.55,309.75
74,0.4121,0.7115,-0.5545,0.1283,31.86,229.27,291.48,308.13
75,0.4116,0.7113,-0.5563,0.1232,32.84,228.88,291.44,305.77
76,0.4117,0.7108,-0.5578,0.119,33.73,228.62,291.42,305.17
77,0.4133,0.7096,-0.5587,0.1165,34.5,228.62,291.41,305.84
78,0.4151,0.7082,-0.5593,0.1152,35.07,228.74,291.39,308.47
79,0.4166,0.7071,-0.5597,0.1151,35.35,228.9,291.36,310.29
80,0.4171,0.7062,-0.5603,0.1153,35.47,228.95,291.26,308.13
81,0.4165,0.7056,-0.5616,0.115,35.57,228.85,291.1,310.29
82,0.4168,0.7048,-0.5625,0.1143,35.85,228.82,291.0,308.98
83,0.4181,0.7037,-0.5632,0.1133,36.3,228.89,290.96,306.53
84,0.4191,0.7026,-0.5638,0.1136,36.46,229.01,290.88,308.41
85,0.4191,0.7015,-0.5646,0.1159,36.2,229.14,290.68,306.71
86,0.4188,0.7006,-0.5658,0.1169,36.14,229.15,290.47,306.25
87,0.4196,0.6994,-0.5667,0.1167,36.41,229.21,290.36,307.13
88,0.421,0.6981,-0.5674,0.116,36.82,229.3,290.3,310.33
89,0.4215,0.6972,-0.5683,0.1152,37.15,229.3,290.21,308.73
90,0.4213,0.6966,-0.5694,0.1144,37.37,229.2,290.08,309.17
91,0.42,0.6963,-0.571,0.113,37.59,228.95,289.91,310.24
92,0.4189,0.696,-0.5725,0.1114,37.88,228.7,289.75,306.79
93,0.4184,0.6954,-0.5738,0.1103,38.14,228.56,289.61,311.48
94,0.4191,0.6943,-0.5747,0.1097,38.47,228.57,289.51,310.38
95,0.4216,0.6928,-0.5748,0.1089,39.0,228.81,289.55,308.79
96,0.4247,0.6909,-0.5746,0.1098,39.32,229.22,289.58,305.58
97,0.4283,0.689,-0.5736,0.1135,39.14,229.86,289.61,304.14
98,0.4312,0.6871,-0.573,0.1167,39.01,230.39,289.59,306.03
99,0.4323,0.6857,-0.5737,0.1174,39.16,230.55,289.47,306.79
100,0.4324,0.6845,-0.575,0.1177,39.29,230.55,289.28,305.78
101,0.4337,0.683,-0.5757,0.1182,39.49,230.72,289.18,302.86
102,0.4408,0.6802,-0.5717,0.1273,38.64,232.15,289.42,310.33
103,0.4623,0.6725,-0.5539,0.1653,33.69,237.24,290.28,306.15
104,0.4914,0.6592,-0.5255,0.2188,26.36,244.36,291.19,307.91
105,0.5138,0.6463,-0.5023,0.2569,21.22,249.76,291.7,302.95
106,0.5204,0.6423,-0.4978,0.2623,20.86,250.97,291.9,305.84
107,0.5134,0.6472,-0.5077,0.2447,23.59,248.85,291.88,306.5
108,0.5009,0.6543,-0.5206,0.2233,26.53,245.83,291.59,305.84
109,0.488,0.6609,-0.5325,0.2036,29.04,242.91,291.19,309.93
110,0.4774,0.6658,-0.5427,0.1854,31.48,240.4,290.83,308.38
111,0.4696,0.6691,-0.5507,0.1688,33.88,238.35,290.59,306.87
112,0.4689,0.6693,-0.5515,0.1674,34.08,238.17,290.56,305.22
113,0.4686,0.6691,-0.5508,0.1716,33.3,238.4,290.43,305.74
114,0.4688,0.6685,-0.5509,0.1729,33.15,238.51,290.35,305.86
115,0.4685,0.6685,-0.5527,0.168,34.1,238.15,290.36,303.57
116,0.4692,0.6687,-0.5552,0.1567,36.29,237.5,290.61,306.37
117,0.4685,0.6692,-0.5594,0.1406,39.27,236.39,290.81,303.57
118,0.4643,0.6699,-0.566,0.1238,42.15,234.77,290.63,306.35
119,0.4579,0.671,-0.5731,0.1079,44.67,232.95,290.23,307.04
120,0.4553,0.6714,-0.5755,0.1036,45.28,232.34,290.03,306.35
121,0.456,0.6706,-0.5748,0.1093,44.37,232.76,289.9,308.59
122,0.4583,0.6691,-0.5737,0.1146,43.74,233.38,289.88,304.59
123,0.4591,0.6683,-0.5744,0.113,44.21,233.36,289.86,305.84
124,0.4595,0.6675,-0.5754,0.1101,44.89,233.21,289.83,305.84
125,0.459,0.667,-0.5765,0.1094,45.09,233.09,289.7,304.62
126,0.4555,0.6675,-0.5791,0.1077,45.13,232.53,289.36,306.96
127,0.45,0.6686,-0.5828,0.1041,45.33,231.59,288.91,309.41
128,0.4444,0.6696,-0.5868,0.0992,45.74,230.56,288.46,307.6
129,0.4419,0.6696,-0.5889,0.0978,45.84,230.15,288.18,305.1
130,0.4414,0.6689,-0.59,0.0977,45.93,230.06,288.01,309.17
131,0.4409,0.6684,-0.5914,0.0956,46.37,229.83,287.88,304.49
132,0.4395,0.6681,-0.5933,0.092,46.97,229.41,287.71,305.2
133,0.4378,0.6678,-0.5956,0.0875,47.74,228.89,287.52,308.66
134,0.4391,0.6667,-0.5961,0.0861,48.25,228.93,287.5,305.77
135,0.4407,0.6655,-0.5962,0.0861,48.52,229.11,287.5,306.35
136,0.4415,0.6642,-0.5971,0.0858,48.82,229.17,287.4,308.54
137,0.4418,0.663,-0.5983,0.0853,49.1,229.14,287.23,307.54
138,0.4435,0.6615,-0.5984,0.0878,48.99,229.48,287.16,308.73
139,0.4444,0.6603,-0.5984,0.091,48.63,229.79,287.05,310.08
140,0.4446,0.6591,-0.5993,0.0936,48.35,229.94,286.84,306.79
141,0.4444,0.6582,-0.6005,0.0933,48.51,229.87,286.66,307.52
142,0.4462,0.6567,-0.6008,0.093,48.91,230.04,286.64,307.44
143,0.4481,0.655,-0.6012,0.0934,49.23,230.28,286.59,305.69
144,0.4488,0.6537,-0.6023,0.0918,49.75,230.24,286.5,302.1
145,0.4476,0.6531,-0.6043,0.0893,50.21,229.89,286.27,303.45
146,0.4457,0.6526,-0.6064,0.0878,50.43,229.53,285.98,303.8
147,0.4459,0.6518,-0.607,0.0889,50.35,229.6,285.85,309.75
148,0.4469,0.6505,-0.6073,0.0911,50.21,229.84,285.76,304.49
149,0.4479,0.6492,-0.6079,0.0921,50.3,230.0,285.64,309.01
150,0.4494,0.6477,-0.6083,0.0921,50.6,230.16,285.58,304.7
151,0.4503,0.6465,-0.609,0.0912,51.0,230.19,285.52,303.93
152,0.4502,0.6455,-0.6104,0.0893,51.49,230.03,285.37,303.94
153,0.45,0.6448,-0.6118,0.0863,52.13,229.77,285.26,308.38
154,0.4492,0.6442,-0.6136,0.0819,52.93,229.36,285.13,304.06
155,0.4481,0.6437,-0.6156,0.0772,53.77,228.88,284.96,308.47
156,0.4481,0.6427,-0.6169,0.0743,54.44,228.67,284.85,305.28
157,0.4495,0.6414,-0.6175,0.0727,55.03,228.71,284.82,308.41
158,0.4504,0.64,-0.6183,0.0724,55.33,228.77,284.72,304.7
159,0.45,0.6389,-0.6197,0.0723,55.47,228.68,284.49,308.02
160,0.4509,0.6377,-0.6204,0.0724,55.7,228.76,284.4,310.43
161,0.4516,0.6364,-0.6211,0.0721,55.98,228.8,284.29,306.87
162,0.4519,0.6352,-0.6222,0.0718,56.23,228.78,284.13,308.66
163,0.452,0.6343,-0.623,0.0725,56.24,228.81,283.99,305.28
164,0.4511,0.6337,-0.6242,0.0734,56.07,228.72,283.77,306.15
165,0.4497,0.6331,-0.6258,0.0733,56.07,228.5,283.5,308.06
166,0.4494,0.6323,-0.6269,0.0724,56.3,228.38,283.35,305.84
167,0.4503,0.6313,-0.6274,0.0717,56.65,228.43,283.3,310.6
168,0.4517,0.6301,-0.6277,0.0701,57.2,228.47,283.31,307.81
169,0.4534,0.6288,-0.6281,0.0675,57.98,228.48,283.35,303.94
170,0.4551,0.6274,-0.6285,0.0651,58.74,228.52,283.37,305.84
171,0.4564,0.6261,-0.629,0.0641,59.18,228.58,283.34,302.44
172,0.4563,0.6252,-0.6299,0.0641,59.3,228.54,283.18,306.23
173,0.4557,0.6244,-0.6311,0.0644,59.31,228.45,282.97,305.1
174,0.4558,0.6234,-0.6319,0.065,59.35,228.47,282.83,306.79
175,0.4563,0.6224,-0.6325,0.0659,59.37,228.57,282.71,306.37
176,0.4565,0.6212,-0.6335,0.0666,59.42,228.61,282.54,305.88
177,0.4562,0.6203,-0.6346,0.0663,59.57,228.51,282.35,305.74
178,0.4571,0.6192,-0.6351,0.0656,59.92,228.56,282.31,306.87
179,0.4594,0.6177,-0.635,0.0655,60.33,228.81,282.36,311.7
180,0.4612,0.6158,-0.6354,0.0651,60.79,228.99,282.32,305.18
181,0.4619,0.6145,-0.6364,0.0645,61.14,228.99,282.19,307.91
182,0.461,0.6137,-0.6378,0.0641,61.24,228.81,281.96,306.87
183,0.4597,0.6131,-0.6393,0.0635,61.33,228.57,281.71,308.2
184,0.4591,0.6124,-0.6405,0.0621,61.61,228.36,281.53,305.88
185,0.4591,0.6115,-0.6416,0.0608,61.96,228.24,281.4,305.84
186,0.4591,0.6105,-0.6426,0.0593,62.36,228.1,281.26,311.9
187,0.4603,0.6091,-0.6432,0.0584,62.8,228.15,281.19,304.59
188,0.4619,0.6075,-0.6436,0.0584,63.16,228.33,281.15,306.19
189,0.464,0.6056,-0.6438,0.0585,63.56,228.56,281.13,305.16
190,0.4654,0.604,-0.6443,0.0581,63.95,228.68,281.07,306.53
191,0.4657,0.6027,-0.6454,0.0574,64.28,228.63,280.91,305.28
192,0.4659,0.6015,-0.6465,0.0564,64.63,228.55,280.76,310.52
193,0.4663,0.6003,-0.6474,0.0554,65.01,228.49,280.63,304.24
194,0.4662,0.5992,-0.6486,0.0546,65.26,228.38,280.45,302.86
195,0.4651,0.5982,-0.6503,0.0539,65.41,228.13,280.16,302.88
196,0.4643,0.5974,-0.6518,0.0525,65.7,227.89,279.93,304.62
197,0.4648,0.5963,-0.6525,0.0511,66.15,227.82,279.85,302.24
198,0.4653,0.5949,-0.6535,0.0496,66.62,227.74,279.71,307.05
199,0.4647,0.5937,-0.6551,0.048,67.0,227.49,279.46,304.49
200,0.4631,0.593,-0.657,0.0471,67.11,227.16,279.12,305.77
201,0.4613,0.5923,-0.659,0.0464,67.14,226.82,278.78,307.26
202,0.4607,0.5914,-0.6602,0.0455,67.35,226.64,278.57,309.17
203,0.4606,0.5904,-0.6613,0.0449,67.59,226.54,278.4,307.74
204,0.4605,0.5893,-0.6623,0.0439,67.89,226.41,278.23,300.55
205,0.4602,0.5884,-0.6635,0.0426,68.18,226.24,278.05,307.48
206,0.4601,0.5874,-0.6645,0.0418,68.44,226.13,277.89,312.41
207,0.4605,0.5864,-0.6651,0.041,68.75,226.09,277.79,307.52
208,0.46,0.5854,-0.6664,0.04,68.99,225.9,277.58,305.2
209,0.4588,0.5846,-0.6681,0.0387,69.19,225.59,277.28,308.98
210,0.458,0.5836,-0.6695,0.038,69.35,225.38,277.03,306.96
211,0.4577,0.5825,-0.6707,0.0378,69.47,225.28,276.82,304.45
212,0.4576,0.5815,-0.6716,0.0376,69.63,225.22,276.66,300.56
213,0.4578,0.5803,-0.6725,0.0373,69.84,225.18,276.5,305.77
214,0.4577,0.5795,-0.6734,0.0362,70.12,225.04,276.35,307.26
215,0.4588,0.5785,-0.6735,0.0356,70.45,225.11,276.34,305.74
216,0.4588,0.5775,-0.6743,0.0354,70.6,225.05,276.19,306.96
217,0.4575,0.5769,-0.6758,0.035,70.61,224.81,275.92,306.23
218,0.4549,0.5766,-0.6778,0.0348,70.41,224.41,275.53,304.99
219,0.4524,0.5763,-0.6797,0.0347,70.19,224.03,275.17,307.15
220,0.4515,0.5758,-0.6807,0.0345,70.2,223.87,274.97,310.7
221,0.4511,0.5752,-0.6816,0.034,70.3,223.74,274.81,303.47
222,0.4501,0.5748,-0.6826,0.0331,70.41,223.51,274.62,311.74
223,0.4492,0.5743,-0.6837,0.032,70.53,223.28,274.44,303.58
224,0.4487,0.5736,-0.6846,0.031,70.73,223.11,274.27,305.74
225,0.4489,0.5728,-0.6852,0.0298,71.06,223.0,274.17,309.75
226,0.4493,0.5719,-0.6857,0.029,71.33,222.97,274.09,304.55
227,0.4488,0.5711,-0.6868,0.0289,71.38,222.84,273.89,304.14
228,0.4477,0.5703,-0.6881,0.0287,71.4,222.64,273.62,311.11
229,0.4481,0.5692,-0.6887,0.0286,71.57,222.65,273.51,306.37
230,0.4489,0.5681,-0.6892,0.0282,71.85,222.67,273.44,305.58
231,0.4491,0.5671,-0.6899,0.0276,72.08,222.61,273.31,304.45
232,0.4489,0.5663,-0.6908,0.0263,72.36,222.44,273.15,305.3
233,0.4502,0.5652,-0.6908,0.0253,72.8,222.52,273.16,307.57
234,0.4522,0.5638,-0.6906,0.025,73.24,222.72,273.2,300.14
235,0.4541,0.5622,-0.6907,0.0247,73.67,222.88,273.19,307.91
236,0.4549,0.561,-0.6912,0.0246,73.91,222.94,273.1,304.03
237,0.4543,0.5602,-0.6922,0.025,73.88,222.85,272.89,305.84
238,0.4536,0.5594,-0.6934,0.0246,73.95,222.68,272.68,308.41
239,0.4535,0.5587,-0.694,0.024,74.13,222.58,272.55,307.57
240,0.4535,0.5578,-0.6947,0.0232,74.34,222.49,272.42,307.34
241,0.4541,0.5568,-0.6952,0.0224,74.67,222.46,272.33,303.33
242,0.4552,0.5557,-0.6953,0.0217,75.02,222.53,272.32,302.81
243,0.4569,0.5544,-0.6953,0.0213,75.43,222.67,272.33,307.18
244,0.4585,0.5532,-0.6952,0.0209,75.83,222.82,272.36,307.18
245,0.4589,0.5522,-0.6958,0.0204,76.06,222.8,272.25,306.95
246,0.4582,0.5514,-0.6968,0.0195,76.21,222.59,272.05,307.52
247,0.4579,0.5506,-0.6978,0.0186,76.42,222.43,271.87,307.65
248,0.4587,0.5494,-0.6981,0.018,76.75,222.45,271.8,309.32
249,0.4594,0.5483,-0.6986,0.0176,77.01,222.46,271.7,308.06
250,0.4593,0.5473,-0.6995,0.017,77.2,222.35,271.53,307.37
251,0.4596,0.5463,-0.7,0.0156,77.58,222.24,271.43,310.24
252,0.4608,0.5452,-0.7001,0.0145,78.02,222.29,271.42,307.18
253,0.4621,0.5437,-0.7004,0.0142,78.4,222.38,271.36,306.72
254,0.4627,0.5424,-0.7011,0.0142,78.6,222.4,271.22,310.14
255,0.4619,0.5416,-0.7022,0.0141,78.6,222.23,270.98,305.84
256,0.4609,0.5409,-0.7034,0.014,78.59,222.05,270.74,302.41
257,0.4607,0.54,-0.7042,0.0135,78.75,221.93,270.57,306.37
258,0.4613,0.539,-0.7046,0.0128,79.03,221.91,270.49,306.71
259,0.4614,0.5381,-0.7053,0.012,79.26,221.81,270.35,305.58
260,0.4615,0.5371,-0.7059,0.0113,79.52,221.73,270.23,304.59
261,0.4626,0.536,-0.7061,0.0108,79.83,221.8,270.19,305.84
262,0.4635,0.5349,-0.7063,0.0106,80.1,221.87,270.15,308.79
263,0.4633,0.5341,-0.7071,0.0103,80.21,221.77,269.98,305.3
264,0.4625,0.5331,-0.7084,0.01,80.28,221.57,269.72,306.3
265,0.4621,0.5322,-0.7093,0.0094,80.41,221.42,269.53,305.1
266,0.4631,0.5311,-0.7096,0.0091,80.71,221.47,269.47,309.7
267,0.4641,0.5299,-0.7098,0.009,80.98,221.56,269.42,306.37
268,0.4645,0.5285,-0.7105,0.0095,81.09,221.6,269.26,308.23
269,0.4641,0.5277,-0.7114,0.0085,81.28,221.41,269.06,308.54
270,0.4652,0.5266,-0.7115,0.0075,81.69,221.43,269.05,304.62
271,0.4666,0.5253,-0.7116,0.0063,82.21,221.49,269.03,304.78
272,0.4676,0.5239,-0.712,0.0055,82.6,221.5,268.94,309.47
273,0.4671,0.5228,-0.7131,0.0056,82.64,221.37,268.7,304.14
274,0.4654,0.5221,-0.7147,0.0059,82.46,221.1,268.35,305.12
275,0.4646,0.5212,-0.7159,0.0056,82.5,220.91,268.1,303.45
276,0.4649,0.5203,-0.7163,0.005,82.74,220.85,267.99,307.26
277,0.4653,0.5193,-0.7168,0.0046,82.95,220.82,267.89,310.14
278,0.4655,0.5182,-0.7175,0.0038,83.22,220.74,267.74,306.95
279,0.4661,0.5171,-0.7179,0.0031,83.51,220.7,267.64,307.18
280,0.4676,0.5159,-0.7178,0.0029,83.87,220.85,267.65,303.57
281,0.4688,0.5147,-0.7179,0.0026,84.19,220.95,267.63,303.57
282,0.4688,0.5135,-0.7187,0.0023,84.35,220.86,267.44,302.88
283,0.4677,0.5126,-0.7201,0.0018,84.4,220.59,267.14,306.96
284,0.4669,0.5118,-0.7212,0.0014,84.43,220.39,266.88,303.47
285,0.4668,0.5108,-0.7219,0.0008,84.63,220.27,266.71,305.69
286,0.4678,0.5097,-0.7221,0.0004,84.93,220.33,266.67,308.13
287,0.4688,0.5083,-0.7224,0.0002,85.24,220.39,266.6,305.78
288,0.4693,0.507,-0.723,-0.0001,85.48,220.38,266.46,305.84
289,0.4694,0.506,-0.7236,-0.0014,85.8,220.22,266.3,308.79
290,0.4707,0.5047,-0.7237,-0.0021,86.23,220.29,266.27,306.79
291,0.4721,0.503,-0.7239,-0.0029,86.7,220.35,266.2,308.35
292,0.4722,0.5017,-0.7248,-0.0031,86.88,220.28,266.0,309.32
293,0.4705,0.5008,-0.7265,-0.0031,86.76,219.95,265.61,303.58
294,0.4688,0.5,-0.7282,-0.0032,86.62,219.63,265.23,302.53
295,0.4685,0.4989,-0.7292,-0.0034,86.71,219.5,265.0,306.95
296,0.4691,0.4977,-0.7296,-0.0036,86.95,219.51,264.89,306.4
297,0.4693,0.4966,-0.7301,-0.0042,87.19,219.43,264.76,307.26
298,0.4693,0.4957,-0.7307,-0.0051,87.42,219.3,264.6,306.64
299,0.4695,0.4948,-0.7313,-0.0058,87.63,219.21,264.47,307.18
300,0.4701,0.4938,-0.7315,-0.0064,87.91,219.19,264.39,306.53
301,0.4698,0.493,-0.7323,-0.0074,88.1,219.01,264.21,308.41
302,0.4682,0.4923,-0.7337,-0.0079,88.03,218.68,263.87,306.95
303,0.4671,0.4916,-0.7349,-0.0079,87.95,218.46,263.59,305.17
304,0.4667,0.4908,-0.7357,-0.0081,87.99,218.34,263.41,306.95
305,0.4668,0.4901,-0.7361,-0.0088,88.18,218.24,263.29,305.78
306,0.4672,0.4892,-0.7364,-0.0094,88.43,218.21,263.21,304.62
307,0.4676,0.4884,-0.7367,-0.0097,88.6,218.19,263.14,306.53
308,0.4671,0.4878,-0.7374,-0.0103,88.68,218.02,262.95,308.84
309,0.4655,0.4872,-0.7388,-0.0116,88.71,217.61,262.61,302.86
310,0.4654,0.4865,-0.7393,-0.0124,88.88,217.49,262.49,308.13
311,0.4655,0.4857,-0.7397,-0.0132,89.09,217.39,262.36,313.32
312,0.465,0.485,-0.7405,-0.014,89.22,217.2,262.17,302.31
313,0.4629,0.4845,-0.7421,-0.0147,89.06,216.77,261.78,307.18
314,0.4601,0.484,-0.7442,-0.0152,88.78,216.27,261.31,304.49
315,0.4583,0.4835,-0.7456,-0.016,88.67,215.89,260.96,304.7
316,0.4579,0.4828,-0.7463,-0.0169,88.82,215.71,260.78,309.15
317,0.4578,0.482,-0.7469,-0.0179,89.03,215.54,260.62,310.85
318,0.4569,0.4814,-0.7477,-0.0205,89.33,215.13,260.37,306.35
319,0.4569,0.4806,-0.7481,-0.0229,89.77,214.86,260.21,307.91
320,0.4575,0.4794,-0.7485,-0.0247,90.24,214.7,260.08,303.47
321,0.4575,0.4786,-0.749,-0.026,90.51,214.52,259.92,306.35
322,0.4568,0.4777,-0.7499,-0.0271,90.63,214.25,259.65,308.66
323,0.4558,0.4768,-0.7511,-0.0276,90.64,213.99,259.36,306.44
324,0.4553,0.4759,-0.7519,-0.0281,90.71,213.82,259.14,305.2
325,0.4553,0.475,-0.7525,-0.0289,90.9,213.68,258.97,305.88
326,0.4555,0.474,-0.7529,-0.0301,91.19,213.53,258.82,305.68
327,0.4562,0.473,-0.7531,-0.0313,91.57,213.46,258.74,311.11
328,0.4573,0.4718,-0.7532,-0.0321,91.95,213.46,258.66,305.78
329,0.4576,0.4706,-0.7537,-0.0326,92.19,213.39,258.51,304.62
330,0.4575,0.4696,-0.7543,-0.0338,92.44,213.18,258.3,306.37
331,0.4585,0.4685,-0.7543,-0.0353,92.9,213.12,258.24,308.06
332,0.4596,0.467,-0.7545,-0.0365,93.37,213.06,258.11,304.14
333,0.4606,0.4657,-0.7547,-0.0369,93.71,213.08,258.02,304.14
334,0.4601,0.4647,-0.7556,-0.037,93.73,212.93,257.78,307.91
335,0.4588,0.4638,-0.757,-0.0374,93.65,212.63,257.44,305.58
336,0.4579,0.4629,-0.758,-0.0381,93.69,212.37,257.16,309.81
337,0.4583,0.4618,-0.7584,-0.0391,93.99,212.25,257.0,308.54
338,0.4591,0.4607,-0.7586,-0.0398,94.3,212.22,256.91,302.38
339,0.4591,0.4596,-0.7591,-0.0414,94.63,211.99,256.71,303.45
340,0.4594,0.4586,-0.7594,-0.0429,94.97,211.82,256.55,304.62
341,0.4602,0.4575,-0.7596,-0.044,95.36,211.75,256.45,307.13
342,0.4606,0.4565,-0.7599,-0.0451,95.66,211.61,256.3,302.81
343,0.4599,0.4556,-0.7608,-0.0458,95.72,211.38,256.03,307.74
344,0.4589,0.4546,-0.762,-0.0462,95.69,211.12,255.73,304.99
345,0.4587,0.4536,-0.7627,-0.0464,95.75,211.0,255.52,305.88
346,0.4586,0.4525,-0.7633,-0.047,95.93,210.85,255.31,303.33
347,0.4588,0.4515,-0.7638,-0.0479,96.17,210.71,255.14,303.57
348,0.4592,0.4503,-0.7641,-0.0491,96.5,210.56,254.98,306.79
349,0.4602,0.4492,-0.7642,-0.05,96.87,210.53,254.89,306.37
350,0.4597,0.4481,-0.765,-0.0517,97.13,210.2,254.6,306.37
351,0.4586,0.4473,-0.766,-0.0532,97.21,209.81,254.27,308.35
352,0.4576,0.4464,-0.767,-0.0546,97.32,209.45,253.95,305.3
353,0.4577,0.4454,-0.7674,-0.0562,97.63,209.22,253.75,305.8
354,0.4582,0.4441,-0.7678,-0.0577,98.03,209.03,253.55,307.54
355,0.4586,0.4428,-0.7683,-0.0581,98.25,208.96,253.38,309.17
356,0.4577,0.4418,-0.7694,-0.0582,98.17,208.74,253.08,304.7
357,0.4564,0.4409,-0.7707,-0.0585,98.04,208.44,252.72,305.2
358,0.4557,0.4398,-0.7716,-0.0591,98.1,208.19,252.43,301.1
359,0.4558,0.4387,-0.7721,-0.06,98.32,208.02,252.23,307.04
360,0.4561,0.4376,-0.7725,-0.0608,98.56,207.9,252.05,308.2
361,0.4561,0.4364,-0.7731,-0.062,98.81,207.67,251.81,303.58
362,0.4559,0.4353,-0.7737,-0.0634,99.05,207.4,251.56,309.04
363,0.4567,0.4342,-0.7738,-0.0643,99.39,207.33,251.44,306.95
364,0.4564,0.4333,-0.7744,-0.0653,99.55,207.11,251.21,305.12
365,0.4553,0.4323,-0.7756,-0.0661,99.52,206.77,250.86,306.23
366,0.4537,0.4313,-0.777,-0.067,99.42,206.37,250.46,304.78
367,0.4532,0.4302,-0.7778,-0.0678,99.51,206.13,250.17,302.31
368,0.4533,0.4291,-0.7783,-0.0687,99.73,205.95,249.96,301.37
369,0.4535,0.428,-0.7786,-0.07,100.02,205.74,249.76,306.79
370,0.4539,0.4269,-0.7789,-0.0711,100.31,205.59,249.58,311.34
371,0.4535,0.426,-0.7795,-0.0725,100.48,205.3,249.32,308.41
372,0.4532,0.425,-0.7801,-0.0739,100.69,205.02,249.07,302.91
373,0.4534,0.4239,-0.7804,-0.0753,100.99,204.8,248.86,304.62
374,0.4535,0.4227,-0.7809,-0.0763,101.21,204.61,248.63,303.47
375,0.4526,0.4215,-0.782,-0.0771,101.21,204.29,248.27,306.23
376,0.4517,0.4204,-0.783,-0.0783,101.28,203.93,247.91,304.67
377,0.4521,0.4193,-0.7832,-0.0796,101.6,203.75,247.72,304.62
378,0.4531,0.4178,-0.7834,-0.0807,102.04,203.62,247.54,305.86
379,0.4538,0.4162,-0.7837,-0.0813,102.33,203.54,247.34,304.59
380,0.4531,0.4152,-0.7847,-0.0814,102.27,203.32,247.04,303.93
381,0.452,0.414,-0.786,-0.0813,102.12,203.08,246.69,308.41
382,0.4512,0.4129,-0.787,-0.0814,102.05,202.87,246.39,305.88
383,0.4514,0.4118,-0.7874,-0.0816,102.17,202.77,246.21,308.13
384,0.4515,0.4105,-0.7879,-0.0822,102.34,202.63,245.98,305.16
385,0.4516,0.4093,-0.7885,-0.0831,102.53,202.42,245.73,308.35
386,0.4518,0.408,-0.7889,-0.0839,102.76,202.24,245.5,301.11
387,0.4525,0.4067,-0.7892,-0.0843,103.02,202.19,245.33,306.44
388,0.4526,0.4055,-0.7897,-0.0843,103.1,202.1,245.14,304.14
389,0.4517,0.4044,-0.7908,-0.0842,102.98,201.89,244.82,307.26
390,0.4507,0.4032,-0.792,-0.084,102.82,201.69,244.5,305.58
391,0.4506,0.402,-0.7926,-0.084,102.87,201.56,244.27,304.99
392,0.4509,0.4008,-0.7931,-0.0844,103.04,201.45,244.07,307.44
393,0.4513,0.3995,-0.7934,-0.0851,103.28,201.32,243.87,303.47
394,0.4516,0.3982,-0.7938,-0.0857,103.48,201.17,243.63,306.37
395,0.4518,0.3971,-0.7942,-0.0862,103.65,201.05,243.44,307.33
396,0.4518,0.3959,-0.7947,-0.0867,103.77,200.88,243.21,309.15
397,0.4516,0.395,-0.7953,-0.0871,103.83,200.72,242.99,305.17
398,0.451,0.3939,-0.7961,-0.0875,103.82,200.5,242.71,308.41
399,0.451,0.3927,-0.7966,-0.0879,103.93,200.34,242.48,303.92
400,0.4514,0.3914,-0.797,-0.0881,104.1,200.25,242.28,305.68
401,0.4515,0.39,-0.7976,-0.0884,104.23,200.12,242.03,308.13
402,0.451,0.3887,-0.7985,-0.0886,104.21,199.9,241.72,307.57
403,0.4512,0.3875,-0.7989,-0.0893,104.4,199.74,241.5,306.11
404,0.4523,0.3863,-0.7988,-0.0903,104.82,199.65,241.36,304.49
405,0.453,0.3847,-0.7991,-0.0912,105.14,199.49,241.11,311.15
406,0.4527,0.3834,-0.7998,-0.0913,105.15,199.32,240.84,305.86
407,0.4513,0.3823,-0.8011,-0.0911,104.89,199.07,240.48,307.18
408,0.45,0.3812,-0.8025,-0.0909,104.65,198.81,240.12,305.96
409,0.4495,0.38,-0.8032,-0.0912,104.65,198.62,239.84,306.79
410,0.45,0.3786,-0.8036,-0.0913,104.82,198.55,239.64,302.53
411,0.4505,0.3773,-0.8039,-0.0918,105.06,198.43,239.45,305.16
412,0.4508,0.3761,-0.8042,-0.0927,105.28,198.25,239.22,302.26
413,0.4511,0.3749,-0.8045,-0.0934,105.47,198.08,238.99,306.32
414,0.451,0.3738,-0.8051,-0.0937,105.54,197.93,238.76,303.47
415,0.4503,0.3727,-0.8059,-0.0941,105.49,197.69,238.46,303.47
416,0.449,0.3716,-0.8071,-0.0941,105.28,197.43,238.11,305.2
417,0.4482,0.3703,-0.8082,-0.0939,105.13,197.24,237.8,308.42
418,0.4482,0.3691,-0.8087,-0.0938,105.17,197.15,237.58,309.04
419,0.4484,0.3678,-0.8092,-0.0942,105.31,197.01,237.35,306.79
420,0.4488,0.3667,-0.8093,-0.0951,105.55,196.84,237.15,303.47
421,0.4493,0.3654,-0.8096,-0.0958,105.78,196.69,236.92,309.17
422,0.4497,0.3641,-0.8098,-0.0964,106.0,196.55,236.71,308.94
423,0.4498,0.3629,-0.8103,-0.097,106.14,196.37,236.47,308.06
424,0.4495,0.3619,-0.8109,-0.0974,106.15,196.18,236.22,306.72
425,0.4489,0.3608,-0.8116,-0.0977,106.11,195.96,235.94,306.37
426,0.4486,0.3597,-0.8122,-0.0981,106.14,195.78,235.68,306.15
427,0.4485,0.3587,-0.8127,-0.0986,106.21,195.6,235.46,307.18
428,0.4482,0.3576,-0.8133,-0.099,106.24,195.41,235.21,305.88
429,0.4473,0.3564,-0.8143,-0.0993,106.11,195.15,234.87,305.84
430,0.4476,0.3552,-0.8145,-0.1002,106.32,194.96,234.64,309.32
431,0.4488,0.354,-0.8143,-0.1009,106.72,194.89,234.5,303.57
432,0.4489,0.3527,-0.8146,-0.102,106.91,194.64,234.23,301.79
433,0.4478,0.3516,-0.8157,-0.1023,106.74,194.36,233.89,303.15
434,0.4461,0.3508,-0.8171,-0.1018,106.34,194.16,233.58,308.47
435,0.445,0.3497,-0.8181,-0.1014,106.09,194.0,233.31,308.79
436,0.4448,0.3487,-0.8187,-0.1015,106.09,193.86,233.09,306.53
437,0.4451,0.3476,-0.8189,-0.102,106.25,193.72,232.89,307.52
438,0.4449,0.3467,-0.8193,-0.103,106.35,193.47,232.63,305.68
439,0.4444,0.3457,-0.8199,-0.1039,106.35,193.21,232.36,305.18
440,0.4437,0.3448,-0.8206,-0.1043,106.28,192.98,232.1,310.14
441,0.4434,0.344,-0.821,-0.105,106.32,192.78,231.88,303.35
442,0.4428,0.3431,-0.8216,-0.1056,106.26,192.55,231.63,307.87
443,0.4417,0.3422,-0.8226,-0.1055,106.05,192.36,231.36,301.79
444,0.4409,0.3412,-0.8235,-0.1054,105.89,192.2,231.1,306.35
445,0.4406,0.3402,-0.824,-0.1056,105.87,192.05,230.88,305.68
446,0.4402,0.3393,-0.8245,-0.1062,105.87,191.82,230.63,306.87
447,0.44,0.3383,-0.8249,-0.1071,105.95,191.6,230.4,307.33
448,0.4399,0.3374,-0.8252,-0.1078,106.03,191.4,230.18,306.87
449,0.4396,0.3365,-0.8257,-0.1085,106.06,191.19,229.95,310.52
450,0.4391,0.3357,-0.8262,-0.1092,106.06,190.96,229.7,303.92
451,0.4384,0.3347,-0.8268,-0.1102,106.02,190.65,229.4,304.45
452,0.4383,0.3336,-0.8272,-0.111,106.11,190.42,229.14,308.35
453,0.4387,0.3326,-0.8273,-0.1115,106.28,190.31,228.97,307.91
454,0.4391,0.3314,-0.8276,-0.1115,106.39,190.24,228.79,307.26
455,0.4387,0.3304,-0.8282,-0.1121,106.39,190.0,228.51,312.07
456,0.4396,0.3294,-0.8278,-0.1136,106.78,189.79,228.33,307.52
457,0.441,0.3282,-0.8274,-0.1149,107.26,189.65,228.16,304.62
458,0.4424,0.3268,-0.8271,-0.1158,107.71,189.52,227.96,306.95
459,0.4424,0.3256,-0.8275,-0.1164,107.78,189.32,227.71,305.22
460,0.4412,0.3247,-0.8285,-0.1162,107.52,189.14,227.44,306.79
461,0.4401,0.3237,-0.8295,-0.1162,107.28,188.93,227.16,306.79
462,0.44,0.3226,-0.8298,-0.1168,107.35,188.76,226.93,306.32
463,0.4408,0.3215,-0.8298,-0.1176,107.62,188.6,226.73,304.49
464,0.4416,0.3205,-0.8296,-0.1188,107.95,188.41,226.53,303.33
465,0.4418,0.3196,-0.8296,-0.1201,108.17,188.14,226.3,307.75
466,0.4425,0.3184,-0.8296,-0.121,108.42,187.97,226.08,310.38
467,0.4428,0.3173,-0.8297,-0.1216,108.59,187.81,225.87,311.93
468,0.4424,0.3164,-0.8302,-0.1222,108.57,187.59,225.62,306.53
469,0.4416,0.3153,-0.8309,-0.1228,108.46,187.33,225.32,306.79
470,0.4413,0.3142,-0.8314,-0.1232,108.45,187.12,225.06,304.59
471,0.4417,0.3131,-0.8316,-0.1235,108.58,187.0,224.86,303.21
472,0.4416,0.3121,-0.832,-0.1243,108.65,186.77,224.6,302.26
473,0.4417,0.3109,-0.8323,-0.1249,108.76,186.57,224.35,308.42
474,0.4418,0.3098,-0.8325,-0.1256,108.87,186.37,224.1,309.32
475,0.4421,0.3087,-0.8326,-0.1264,109.02,186.18,223.88,304.51
476,0.4417,0.3077,-0.8331,-0.1273,109.03,185.91,223.59,308.42
477,0.4417,0.3065,-0.8334,-0.1283,109.14,185.63,223.28,308.13
478,0.4415,0.3053,-0.8338,-0.1292,109.21,185.36,222.98,304.55
479,0.4411,0.3041,-0.8344,-0.1297,109.15,185.13,222.7,306.71
480,0.4401,0.303,-0.8353,-0.1296,108.93,184.95,222.42,304.24
481,0.4398,0.302,-0.8356,-0.1306,108.96,184.69,222.16,308.41
482,0.4409,0.3008,-0.8353,-0.1319,109.36,184.46,221.92,308.41
483,0.4418,0.2993,-0.8352,-0.133,109.69,184.22,221.63,308.79
484,0.442,0.2981,-0.8355,-0.1333,109.78,184.07,221.38,303.35
485,0.4413,0.2969,-0.8363,-0.133,109.59,183.94,221.13,303.33
486,0.4401,0.2958,-0.8373,-0.133,109.3,183.73,220.84,308.98
487,0.4396,0.2948,-0.8379,-0.1335,109.24,183.51,220.58,304.01
488,0.44,0.2937,-0.8379,-0.1343,109.43,183.31,220.35,306.32
489,0.4402,0.2927,-0.838,-0.1351,109.55,183.11,220.11,310.52
490,0.4401,0.2916,-0.8383,-0.1361,109.62,182.82,219.82,302.81
491,0.4404,0.2906,-0.8384,-0.1369,109.76,182.63,219.59,306.3
492,0.4412,0.2894,-0.8383,-0.1371,109.98,182.54,219.41,306.53
493,0.4409,0.2883,-0.8388,-0.1376,109.96,182.33,219.16,306.79
494,0.4396,0.2874,-0.8397,-0.138,109.69,182.09,218.86,309.6
495,0.4386,0.2862,-0.8406,-0.1383,109.48,181.85,218.57,305.88
496,0.4386,0.2851,-0.8409,-0.1387,109.51,181.66,218.32,308.41
497,0.439,0.2839,-0.841,-0.1394,109.68,181.46,218.06,307.54
498,0.4392,0.2828,-0.8411,-0.1404,109.82,181.22,217.8,303.21
499,0.4397,0.2817,-0.8411,-0.1412,110.0,181.03,217.57,306.4
500,0.4399,0.2806,-0.8412,-0.1417,110.1,180.85,217.34,304.59
501,0.4395,0.2797,-0.8417,-0.1422,110.04,180.65,217.11,310.29
502,0.4388,0.2787,-0.8423,-0.1428,109.92,180.39,216.83,305.86
503,0.4385,0.2776,-0.8426,-0.1436,109.91,180.15,216.55,304.49
504,0.4387,0.2765,-0.8428,-0.144,109.99,179.98,216.32,307.41
505,0.4386,0.2753,-0.8432,-0.1441,109.99,179.85,216.09,304.65
506,0.4376,0.2741,-0.8441,-0.1442,109.75,179.64,215.79,305.84
507,0.4378,0.273,-0.8441,-0.1456,109.9,179.33,215.5,306.53
508,0.4388,0.272,-0.8438,-0.1468,110.24,179.1,215.26,305.77
509,0.4394,0.2705,-0.8438,-0.1477,110.45,178.83,214.94,306.87
510,0.4391,0.2693,-0.8443,-0.1479,110.38,178.68,214.69,305.67
511,0.438,0.2682,-0.8453,-0.1474,110.07,178.58,214.46,306.72
512,0.4369,0.267,-0.8463,-0.1472,109.77,178.43,214.2,307.13
513,0.4366,0.2658,-0.8468,-0.1476,109.72,178.22,213.93,303.35
514,0.4367,0.2647,-0.8469,-0.1484,109.82,177.99,213.66,306.15
515,0.4368,0.2636,-0.847,-0.1492,109.9,177.76,213.4,307.94
516,0.4368,0.2625,-0.8471,-0.1505,109.98,177.44,213.1,306.53
517,0.437,0.2615,-0.8473,-0.1512,110.07,177.22,212.86,305.86
518,0.4373,0.2604,-0.8473,-0.1517,110.18,177.06,212.63,307.52
519,0.4368,0.2593,-0.8479,-0.152,110.06,176.88,212.38,306.37
520,0.4353,0.2582,-0.8489,-0.1524,109.73,176.62,212.08,306.37
521,0.4347,0.257,-0.8495,-0.1526,109.58,176.44,211.82,301.74
522,0.4347,0.2559,-0.8498,-0.1531,109.61,176.25,211.57,308.73
523,0.4349,0.2548,-0.8498,-0.1539,109.7,176.03,211.32,307.04
524,0.4351,0.2537,-0.8499,-0.155,109.82,175.75,211.03,305.84
525,0.4355,0.2525,-0.8499,-0.1559,109.96,175.49,210.74,307.94
526,0.4354,0.2513,-0.8501,-0.1565,109.98,175.27,210.48,305.86
527,0.435,0.2503,-0.8505,-0.1572,109.9,175.03,210.21,306.64
528,0.4343,0.2492,-0.8511,-0.1577,109.75,174.83,209.96,305.78
529,0.4336,0.2482,-0.8517,-0.1582,109.59,174.6,209.7,302.81
530,0.433,0.2471,-0.8521,-0.159,109.48,174.35,209.42,307.18
531,0.433,0.246,-0.8523,-0.1598,109.52,174.1,209.13,302.88
532,0.433,0.2449,-0.8525,-0.1604,109.55,173.89,208.89,306.71
533,0.4328,0.2438,-0.8529,-0.1608,109.49,173.7,208.64,306.95
534,0.4319,0.2426,-0.8535,-0.1617,109.3,173.41,208.32,307.13
535,0.4325,0.2416,-0.8532,-0.1632,109.55,173.09,208.04,303.37
536,0.4331,0.2404,-0.853,-0.1644,109.76,172.78,207.73,304.45
537,0.4331,0.2391,-0.8532,-0.1651,109.79,172.54,207.42,304.51
538,0.432,0.2379,-0.8541,-0.165,109.48,172.4,207.19,306.27
539,0.4307,0.2367,-0.8552,-0.1646,109.09,172.32,206.98,311.11
540,0.4299,0.2356,-0.856,-0.1644,108.86,172.2,206.77,304.05
541,0.4301,0.2345,-0.856,-0.165,108.94,172.01,206.53,305.84
542,0.4305,0.2334,-0.856,-0.1657,109.06,171.81,206.29,307.81
543,0.4306,0.2324,-0.856,-0.1668,109.11,171.53,206.0,311.47
544,0.4307,0.2312,-0.856,-0.1679,109.19,171.23,205.7,306.95
545,0.4309,0.23,-0.8562,-0.1684,109.24,171.05,205.44,306.71
546,0.4309,0.2289,-0.8565,-0.1686,109.22,170.91,205.22,308.47
547,0.4298,0.2277,-0.8573,-0.1686,108.93,170.75,204.99,309.75
548,0.4285,0.2265,-0.8583,-0.1686,108.57,170.6,204.73,302.76
549,0.4283,0.2253,-0.8587,-0.1689,108.5,170.44,204.49,309.37
550,0.4288,0.2239,-0.8587,-0.1693,108.64,170.25,204.21,308.54
551,0.4292,0.2225,-0.8587,-0.1701,108.74,170.01,203.91,308.2
552,0.4295,0.2211,-0.8588,-0.1708,108.81,169.77,203.61,306.71
553,0.4299,0.2199,-0.8587,-0.1714,108.93,169.57,203.35,308.73
554,0.43,0.2187,-0.8589,-0.1718,108.95,169.38,203.09,307.54
555,0.4297,0.2175,-0.8593,-0.1723,108.87,169.19,202.84,304.78
556,0.4291,0.2164,-0.8597,-0.1728,108.71,168.98,202.58,306.79
557,0.4286,0.2152,-0.8603,-0.173,108.57,168.83,202.35,306.87
558,0.4286,0.2139,-0.8605,-0.1733,108.54,168.65,202.09,303.58
559,0.4286,0.2129,-0.8607,-0.1736,108.53,168.51,201.88,303.92
560,0.4287,0.2115,-0.861,-0.1739,108.52,168.34,201.62,306.79
561,0.4286,0.2103,-0.8612,-0.1745,108.51,168.13,201.35,309.09
562,0.4285,0.2091,-0.8614,-0.175,108.47,167.92,201.09,301.64
563,0.4284,0.2079,-0.8616,-0.1757,108.44,167.69,200.81,307.26
564,0.4283,0.2066,-0.8619,-0.1761,108.4,167.49,200.54,305.2
565,0.4282,0.2054,-0.8621,-0.1766,108.36,167.3,200.28,307.65
566,0.428,0.2041,-0.8625,-0.177,108.3,167.12,200.03,305.22
567,0.4278,0.2029,-0.8627,-0.1774,108.23,166.95,199.79,304.55
568,0.4276,0.2018,-0.863,-0.1779,108.16,166.75,199.54,303.58
569,0.4274,0.2007,-0.8633,-0.1783,108.09,166.57,199.3,302.68
570,0.4276,0.1993,-0.8634,-0.1787,108.11,166.37,199.02,302.38
571,0.4277,0.1981,-0.8635,-0.1795,108.14,166.14,198.75,305.18
572,0.4274,0.1967,-0.8639,-0.1798,108.04,165.96,198.47,304.45
573,0.4267,0.1955,-0.8644,-0.1802,107.83,165.78,198.22,304.49
574,0.4277,0.1944,-0.864,-0.1809,108.08,165.57,197.97,306.79
575,0.4281,0.193,-0.8639,-0.1818,108.18,165.3,197.66,307.74
576,0.4274,0.1918,-0.8644,-0.1826,108.0,165.04,197.37,304.62
577,0.426,0.1905,-0.8654,-0.1825,107.58,164.94,197.16,304.51
578,0.425,0.1892,-0.8663,-0.1818,107.25,164.94,197.0,306.15
579,0.4246,0.1882,-0.8668,-0.1815,107.12,164.89,196.84,308.35
580,0.4247,0.1873,-0.8668,-0.1821,107.13,164.7,196.62,307.18
581,0.4245,0.1862,-0.867,-0.1829,107.07,164.49,196.39,305.68
582,0.424,0.1854,-0.8672,-0.1839,106.95,164.23,196.15,303.47
583,0.4235,0.1845,-0.8675,-0.1846,106.81,164.03,195.94,308.31
584,0.4224,0.1836,-0.8681,-0.1851,106.51,163.87,195.76,304.65
585,0.4213,0.1827,-0.8687,-0.1856,106.22,163.7,195.57,311.34
586,0.4201,0.1817,-0.8695,-0.1858,105.88,163.57,195.39,305.68
587,0.4193,0.1807,-0.87,-0.1859,105.66,163.47,195.21,307.52
588,0.4191,0.1797,-0.8703,-0.1862,105.58,163.33,195.01,304.74
589,0.4187,0.1788,-0.8706,-0.1868,105.45,163.14,194.81,305.58
590,0.418,0.1778,-0.8709,-0.1875,105.26,162.95,194.6,307.76
591,0.4176,0.1768,-0.8711,-0.1883,105.16,162.72,194.36,304.55
592,0.4175,0.1759,-0.8712,-0.1891,105.12,162.52,194.15,305.12
593,0.4171,0.1748,-0.8714,-0.1902,105.0,162.25,193.88,309.04
594,0.4165,0.1738,-0.8717,-0.191,104.84,162.03,193.65,306.23
595,0.4158,0.1728,-0.8721,-0.1915,104.65,161.86,193.44,303.15
596,0.4152,0.1718,-0.8725,-0.1918,104.45,161.72,193.26,305.3
597,0.4149,0.1708,-0.8728,-0.1923,104.36,161.56,193.05,304.51
598,0.4149,0.1698,-0.8728,-0.193,104.33,161.37,192.84,306.71
599,0.4147,0.1689,-0.8729,-0.1937,104.28,161.18,192.64,306.79
600,0.4144,0.168,-0.873,-0.1947,104.18,160.93,192.39,307.44
601,0.4144,0.1668,-0.873,-0.1958,104.17,160.66,192.11,302.5
602,0.4147,0.1658,-0.8728,-0.1967,104.21,160.42,191.87,308.78
603,0.4147,0.1646,-0.873,-0.1969,104.17,160.29,191.65,306.95
604,0.4134,0.1635,-0.8737,-0.1974,103.8,160.12,191.45,304.51
605,0.4134,0.1626,-0.8736,-0.1987,103.8,159.84,191.2,304.24
606,0.4139,0.1615,-0.8733,-0.1999,103.9,159.53,190.9,310.96
607,0.4142,0.1603,-0.8732,-0.2008,103.95,159.29,190.63,304.7
608,0.414,0.1591,-0.8734,-0.2011,103.85,159.14,190.4,303.58
609,0.4131,0.1578,-0.8742,-0.2006,103.56,159.13,190.25,305.58
610,0.4122,0.1566,-0.8749,-0.2004,103.26,159.08,190.09,303.8
611,0.412,0.1556,-0.875,-0.201,103.17,158.91,189.88,306.79
612,0.4123,0.1545,-0.8749,-0.2019,103.21,158.67,189.63,309.09
613,0.4123,0.1534,-0.8748,-0.2029,103.19,158.41,189.35,308.47
614,0.4124,0.1523,-0.8747,-0.2042,103.18,158.11,189.08,305.22
615,0.4124,0.1512,-0.8746,-0.2053,103.17,157.84,188.81,306.23
616,0.4127,0.1501,-0.8745,-0.2058,103.19,157.66,188.57,305.88
617,0.4122,0.149,-0.8749,-0.2061,103.02,157.53,188.38,302.38
618,0.411,0.1478,-0.8756,-0.2064,102.67,157.42,188.2,304.62
619,0.4102,0.1467,-0.8761,-0.2067,102.4,157.3,188.02,304.51
620,0.41,0.1455,-0.8762,-0.2072,102.31,157.13,187.8,304.49
621,0.4102,0.1444,-0.8762,-0.2079,102.31,156.92,187.56,304.49
622,0.4104,0.1433,-0.876,-0.2088,102.31,156.68,187.3,304.62
623,0.4104,0.1423,-0.876,-0.2098,102.29,156.44,187.05,304.59
624,0.4106,0.141,-0.8759,-0.2107,102.28,156.2,186.78,302.88
625,0.4104,0.14,-0.876,-0.2115,102.18,155.99,186.55,304.62
626,0.41,0.1389,-0.8762,-0.2119,102.04,155.85,186.36,312.78
627,0.4093,0.138,-0.8765,-0.2124,101.81,155.7,186.19,307.52
628,0.4086,0.1369,-0.8769,-0.213,101.6,155.53,185.99,304.0
629,0.4086,0.1357,-0.877,-0.2133,101.53,155.41,185.79,306.53
630,0.4088,0.1347,-0.877,-0.2136,101.52,155.28,185.59,301.79
631,0.4083,0.1332,-0.8774,-0.2138,101.32,155.16,185.37,303.37
632,0.4078,0.1322,-0.8776,-0.2148,101.15,154.93,185.14,308.2
633,0.4087,0.1314,-0.8769,-0.2161,101.37,154.63,184.88,306.23
634,0.4089,0.1301,-0.8768,-0.2171,101.34,154.35,184.57,307.74
635,0.4082,0.1288,-0.8772,-0.2175,101.09,154.22,184.38,309.65
636,0.4071,0.1276,-0.8779,-0.2172,100.77,154.21,184.25,307.74
637,0.4064,0.1264,-0.8786,-0.2167,100.5,154.22,184.13,301.48
638,0.4059,0.1254,-0.8789,-0.2169,100.33,154.14,183.98,305.58
639,0.4059,0.1243,-0.8789,-0.2177,100.27,153.93,183.73,306.25
640,0.4059,0.1231,-0.8788,-0.2185,100.21,153.71,183.49,307.18
641,0.4057,0.1221,-0.8788,-0.2196,100.11,153.46,183.26,304.24
642,0.4057,0.121,-0.8786,-0.2208,100.06,153.19,182.99,304.62
643,0.4058,0.1199,-0.8786,-0.2213,100.01,153.01,182.76,308.42
644,0.4056,0.1188,-0.8788,-0.2216,99.92,152.9,182.58,302.36
645,0.4046,0.1177,-0.8794,-0.2217,99.6,152.84,182.45,306.3
646,0.4034,0.1166,-0.88,-0.2217,99.25,152.8,182.33,302.92
647,0.403,0.1153,-0.8803,-0.2221,99.06,152.66,182.12,306.87
648,0.4029,0.1142,-0.8804,-0.2227,98.97,152.49,181.91,305.09
649,0.4027,0.1131,-0.8804,-0.2234,98.87,152.31,181.69,306.32
650,0.4028,0.112,-0.8803,-0.2242,98.82,152.1,181.46,305.3
651,0.403,0.1109,-0.8802,-0.2249,98.81,151.89,181.23,305.2
652,0.4029,0.1098,-0.8802,-0.2256,98.72,151.72,181.02,305.3
653,0.4024,0.1087,-0.8804,-0.226,98.53,151.59,180.84,303.93
654,0.4015,0.1076,-0.8809,-0.2265,98.24,151.46,180.68,306.71
655,0.4007,0.1065,-0.8812,-0.2272,97.98,151.31,180.49,302.81
656,0.4007,0.1054,-0.8812,-0.2277,97.9,151.16,180.28,306.23
657,0.4006,0.1043,-0.8813,-0.228,97.82,151.03,180.09,308.98
658,0.3998,0.1028,-0.8818,-0.2282,97.54,150.94,179.9,304.65
659,0.3989,0.1017,-0.8821,-0.2289,97.23,150.78,179.72,305.12
660,0.3998,0.1008,-0.8814,-0.2305,97.4,150.44,179.43,305.1
661,0.4,0.0996,-0.8811,-0.2317,97.37,150.14,179.15,302.44
662,0.3997,0.0983,-0.8813,-0.2322,97.2,150.0,178.93,310.33
663,0.3985,0.0971,-0.8821,-0.2317,96.85,150.05,178.85,305.16
664,0.3976,0.0958,-0.8829,-0.2309,96.53,150.14,178.77,308.41
665,0.397,0.0946,-0.8832,-0.2311,96.3,150.04,178.59,302.5
666,0.3971,0.0936,-0.883,-0.232,96.28,149.83,178.37,305.74
667,0.3973,0.0926,-0.8828,-0.2328,96.24,149.63,178.15,306.79
668,0.3971,0.0916,-0.8827,-0.2338,96.14,149.42,177.95,306.3
669,0.3971,0.0905,-0.8826,-0.2348,96.05,149.18,177.71,306.32
670,0.3971,0.0893,-0.8825,-0.2354,95.98,149.01,177.49,305.22
671,0.3969,0.0882,-0.8827,-0.2358,95.84,148.9,177.31,303.47
672,0.3958,0.087,-0.8833,-0.2358,95.51,148.87,177.19,305.68
673,0.3948,0.0858,-0.8838,-0.236,95.19,148.8,177.06,306.64
674,0.3944,0.0847,-0.8841,-0.236,95.01,148.74,176.91,306.96
675,0.3945,0.0836,-0.884,-0.2365,94.94,148.6,176.71,306.35
676,0.3944,0.0824,-0.8839,-0.2376,94.83,148.36,176.46,307.37
677,0.3945,0.0812,-0.8837,-0.2385,94.78,148.12,176.21,308.26
678,0.3947,0.08,-0.8835,-0.2394,94.73,147.91,175.97,307.81
679,0.3945,0.0789,-0.8835,-0.24,94.6,147.75,175.78,303.92
680,0.3936,0.0778,-0.8838,-0.2404,94.32,147.66,175.63,309.17
681,0.3931,0.0767,-0.8841,-0.2408,94.11,147.56,175.48,305.86
682,0.3927,0.0755,-0.8843,-0.241,93.93,147.47,175.31,308.41
683,0.3924,0.0744,-0.8844,-0.2415,93.78,147.35,175.14,304.55
684,0.3921,0.0733,-0.8845,-0.2421,93.62,147.2,174.96,307.26
685,0.3921,0.0721,-0.8844,-0.2426,93.53,147.04,174.75,305.78
686,0.3922,0.0711,-0.8843,-0.2433,93.49,146.88,174.55,307.18
687,0.3921,0.0696,-0.8843,-0.2436,93.34,146.74,174.32,306.87
688,0.3913,0.0684,-0.8846,-0.2443,93.05,146.6,174.15,304.03
689,0.3922,0.0677,-0.8839,-0.2456,93.2,146.31,173.9,305.77
690,0.392,0.0663,-0.8838,-0.2468,93.04,146.06,173.64,308.54
691,0.3916,0.0649,-0.8839,-0.2471,92.85,145.95,173.44,305.16
692,0.3906,0.0637,-0.8846,-0.2466,92.51,146.01,173.36,304.1
693,0.3893,0.0623,-0.8855,-0.246,92.13,146.09,173.28,307.37
694,0.3886,0.0613,-0.8858,-0.2461,91.88,146.04,173.17,303.47
695,0.3889,0.0603,-0.8855,-0.2469,91.88,145.85,172.95,306.71
696,0.3891,0.0593,-0.8852,-0.2479,91.83,145.64,172.74,305.2
697,0.3888,0.0582,-0.8852,-0.2487,91.65,145.47,172.56,306.23
698,0.3883,0.0572,-0.8852,-0.2497,91.46,145.27,172.38,304.01
699,0.3882,0.0561,-0.8851,-0.2504,91.35,145.11,172.18,305.58
700,0.3881,0.0551,-0.8851,-0.2508,91.24,144.99,172.01,307.04
701,0.3874,0.0539,-0.8855,-0.2507,90.97,144.98,171.9,309.04
702,0.3862,0.0527,-0.8861,-0.2508,90.62,144.97,171.8,304.78
703,0.3856,0.0514,-0.8864,-0.251,90.37,144.9,171.65,306.37
704,0.3857,0.0504,-0.8862,-0.2515,90.32,144.76,171.46,309.17
705,0.3858,0.0494,-0.8861,-0.2523,90.24,144.58,171.27,308.79
706,0.3858,0.0482,-0.8859,-0.2532,90.13,144.37,171.05,304.62
707,0.3859,0.0472,-0.8856,-0.254,90.06,144.19,170.85,303.58
708,0.3855,0.0461,-0.8857,-0.2547,89.87,144.05,170.67,306.15
709,0.3849,0.0449,-0.8859,-0.2549,89.64,143.98,170.54,307.76
710,0.3842,0.0437,-0.8862,-0.2552,89.37,143.92,170.39,305.12
711,0.3835,0.0425,-0.8865,-0.2555,89.11,143.85,170.26,307.57
712,0.3831,0.0415,-0.8866,-0.256,88.93,143.73,170.1,307.44
713,0.3829,0.0402,-0.8866,-0.2565,88.78,143.61,169.92,306.71
714,0.3827,0.0391,-0.8866,-0.257,88.64,143.48,169.75,304.74
715,0.3826,0.038,-0.8865,-0.2576,88.51,143.34,169.57,301.18
716,0.3823,0.037,-0.8865,-0.2581,88.36,143.22,169.41,305.86
717,0.3821,0.0359,-0.8865,-0.2586,88.21,143.11,169.25,305.16
718,0.3818,0.0347,-0.8865,-0.2591,88.05,142.98,169.07,306.15
719,0.3815,0.0336,-0.8865,-0.2598,87.86,142.84,168.91,307.91
720,0.3812,0.0325,-0.8865,-0.2602,87.71,142.74,168.74,304.14
721,0.3809,0.0313,-0.8866,-0.2605,87.54,142.66,168.59,307.91
722,0.3803,0.0302,-0.8868,-0.2607,87.31,142.6,168.46,301.88
723,0.3798,0.0291,-0.887,-0.2612,87.09,142.51,168.32,305.3
724,0.3795,0.028,-0.8869,-0.2618,86.93,142.38,168.15,307.54
725,0.3796,0.0269,-0.8868,-0.2623,86.85,142.23,167.96,307.33
726,0.3795,0.0256,-0.8867,-0.2628,86.71,142.11,167.77,307.44
727,0.3786,0.0242,-0.8871,-0.263,86.38,142.06,167.63,299.22
728,0.3786,0.0232,-0.8868,-0.2641,86.28,141.85,167.43,301.74
729,0.3794,0.0226,-0.8861,-0.2654,86.37,141.58,167.22,308.02
730,0.3791,0.0213,-0.8861,-0.2658,86.17,141.46,167.03,305.3
731,0.3781,0.0197,-0.8866,-0.2658,85.83,141.45,166.9,304.93
732,0.3776,0.0184,-0.887,-0.2651,85.63,141.52,166.79,306.87
733,0.3771,0.0171,-0.8874,-0.2646,85.43,141.56,166.68,303.57
734,0.3772,0.0159,-0.8872,-0.2651,85.34,141.43,166.49,304.03
735,0.3773,0.0149,-0.887,-0.2659,85.26,141.27,166.31,305.78
736,0.3771,0.0138,-0.8868,-0.2667,85.11,141.1,166.13,305.16
737,0.3768,0.0128,-0.8866,-0.2678,84.92,140.91,165.95,304.62
738,0.3766,0.0117,-0.8865,-0.2687,84.75,140.74,165.78,302.92
739,0.3762,0.0105,-0.8866,-0.2689,84.56,140.68,165.63,305.86
740,0.3758,0.0095,-0.8867,-0.2691,84.38,140.62,165.5,310.24
741,0.375,0.0083,-0.8871,-0.2689,84.11,140.64,165.41,305.09
742,0.3744,0.007,-0.8874,-0.269,83.85,140.61,165.28,304.74
743,0.3741,0.0057,-0.8875,-0.2692,83.68,140.54,165.12,305.58
744,0.3744,0.0045,-0.8872,-0.2695,83.64,140.42,164.93,303.94
745,0.3745,0.0033,-0.887,-0.2701,83.53,140.27,164.74,306.95
746,0.3745,0.0022,-0.8867,-0.271,83.41,140.09,164.54,306.15
747,0.3746,0.001,-0.8865,-0.2717,83.32,139.92,164.33,305.58
748,0.3743,-0.0002,-0.8864,-0.2722,83.15,139.82,164.17,299.05
749,0.3738,-0.0014,-0.8866,-0.2724,82.93,139.76,164.03,306.79
750,0.3734,-0.0027,-0.8867,-0.2727,82.7,139.69,163.88,305.18
751,0.3731,-0.0039,-0.8868,-0.2728,82.53,139.65,163.74,308.66
752,0.3729,-0.0051,-0.8868,-0.273,82.38,139.58,163.59,307.61
753,0.3724,-0.0063,-0.8869,-0.2732,82.17,139.52,163.45,306.64
754,0.3721,-0.0076,-0.887,-0.2734,81.99,139.45,163.29,300.53
755,0.372,-0.0088,-0.8868,-0.274,81.84,139.32,163.12,307.18
756,0.3718,-0.01,-0.8868,-0.2745,81.66,139.21,162.95,307.74
757,0.3715,-0.0112,-0.8867,-0.2751,81.47,139.1,162.79,304.45
758,0.3711,-0.0124,-0.8867,-0.2754,81.28,139.01,162.63,303.57
759,0.3713,-0.0135,-0.8865,-0.2759,81.21,138.89,162.46,305.2
760,0.3715,-0.0147,-0.8862,-0.2763,81.14,138.76,162.26,307.94
761,0.3714,-0.016,-0.8861,-0.2769,80.97,138.63,162.08,303.92
762,0.3707,-0.0175,-0.8864,-0.2768,80.69,138.63,161.94,300.38
763,0.3702,-0.0189,-0.8865,-0.2771,80.45,138.57,161.78,305.22
764,0.3705,-0.0199,-0.886,-0.2779,80.42,138.38,161.59,304.01
765,0.3704,-0.0212,-0.8857,-0.2789,80.24,138.19,161.38,305.12
766,0.3697,-0.0225,-0.8859,-0.2792,79.95,138.14,161.25,305.12
767,0.3687,-0.024,-0.8865,-0.2788,79.62,138.21,161.16,300.39
768,0.3681,-0.0253,-0.8869,-0.2781,79.41,138.29,161.07,306.32
769,0.3679,-0.0263,-0.8869,-0.2781,79.29,138.26,160.95,308.06
770,0.3678,-0.0272,-0.8867,-0.2786,79.16,138.15,160.81,305.78
771,0.3671,-0.0283,-0.8869,-0.279,78.9,138.1,160.71,304.05
772,0.3661,-0.0291,-0.8872,-0.2794,78.58,138.07,160.66,306.44
773,0.3652,-0.03,-0.8873,-0.2799,78.3,138.03,160.59,304.01
774,0.3642,-0.031,-0.8877,-0.2801,77.98,138.03,160.54,304.59
775,0.3634,-0.0318,-0.8878,-0.2806,77.72,137.97,160.47,303.57
776,0.3624,-0.0327,-0.8881,-0.2808,77.42,137.97,160.4,306.11
777,0.3615,-0.0339,-0.8885,-0.2806,77.12,138.01,160.34,306.71
778,0.3606,-0.035,-0.8889,-0.2804,76.85,138.04,160.27,307.91
779,0.3602,-0.036,-0.8889,-0.2807,76.66,138.0,160.16,306.87
780,0.3599,-0.0369,-0.8888,-0.2814,76.47,137.88,160.04,304.03
781,0.3594,-0.0379,-0.8886,-0.2824,76.26,137.73,159.9,307.74
782,0.3588,-0.0388,-0.8885,-0.2835,76.0,137.58,159.78,308.13
783,0.3583,-0.0398,-0.8883,-0.2843,75.76,137.45,159.65,308.02
784,0.3574,-0.0409,-0.8885,-0.285,75.45,137.38,159.55,305.58
785,0.3568,-0.042,-0.8885,-0.2854,75.2,137.32,159.44,302.81
786,0.3563,-0.043,-0.8885,-0.2858,74.99,137.26,159.33,304.03
787,0.3559,-0.0441,-0.8885,-0.2863,74.78,137.17,159.2,306.3
788,0.3553,-0.0451,-0.8885,-0.2868,74.53,137.11,159.09,305.88
789,0.3549,-0.0461,-0.8885,-0.2873,74.33,137.02,158.97,306.71
790,0.3546,-0.0471,-0.8883,-0.2881,74.15,136.89,158.83,304.49
791,0.3542,-0.0481,-0.888,-0.2891,73.92,136.74,158.7,300.37
792,0.3538,-0.049,-0.8878,-0.2904,73.69,136.56,158.56,306.03
793,0.354,-0.05,-0.8873,-0.2913,73.6,136.38,158.38,301.78
794,0.354,-0.051,-0.887,-0.292,73.49,136.26,158.23,306.23
795,0.3533,-0.0524,-0.8872,-0.292,73.21,136.25,158.12,304.14
796,0.3523,-0.0534,-0.8874,-0.2925,72.89,136.21,158.04,305.78
797,0.3528,-0.0542,-0.8867,-0.2938,72.85,135.97,157.85,302.91
798,0.353,-0.0555,-0.8862,-0.2949,72.74,135.76,157.62,305.88
799,0.3529,-0.0568,-0.886,-0.2954,72.56,135.65,157.45,307.74
800,0.3522,-0.0581,-0.8863,-0.2952,72.31,135.68,157.35,308.66
801,0.3515,-0.0595,-0.8865,-0.2949,72.06,135.71,157.25,308.02
802,0.351,-0.0607,-0.8866,-0.295,71.84,135.7,157.13,305.84
803,0.351,-0.0616,-0.8863,-0.2956,71.72,135.57,156.99,303.58
804,0.351,-0.0627,-0.886,-0.2964,71.57,135.44,156.83,301.88
805,0.3506,-0.0638,-0.8859,-0.297,71.37,135.33,156.7,304.24
806,0.3504,-0.0647,-0.8856,-0.298,71.18,135.18,156.56,305.12
807,0.3501,-0.0658,-0.8854,-0.2986,71.0,135.08,156.42,305.1
808,0.3501,-0.0669,-0.8852,-0.2991,70.87,134.98,156.27,310.85
809,0.3496,-0.068,-0.8852,-0.2993,70.64,134.95,156.17,301.78
810,0.3486,-0.0693,-0.8855,-0.2992,70.33,134.99,156.09,303.35
811,0.348,-0.0705,-0.8857,-0.2991,70.09,135.0,156.0,304.78
812,0.3477,-0.0716,-0.8856,-0.2994,69.93,134.93,155.87,306.64
813,0.3477,-0.0725,-0.8853,-0.3002,69.78,134.8,155.73,306.79
814,0.3477,-0.0736,-0.8849,-0.3012,69.65,134.64,155.56,307.13
815,0.3478,-0.0747,-0.8844,-0.3022,69.5,134.46,155.38,306.3
816,0.3477,-0.0758,-0.8841,-0.3028,69.35,134.34,155.22,301.18
817,0.3474,-0.077,-0.884,-0.3032,69.15,134.27,155.09,306.3
818,0.3467,-0.0781,-0.8842,-0.3033,68.9,134.27,155.01,304.49
819,0.346,-0.0793,-0.8843,-0.3034,68.64,134.27,154.91,308.47
820,0.3456,-0.0804,-0.8842,-0.3037,68.44,134.22,154.8,305.58
821,0.3449,-0.0816,-0.8842,-0.3041,68.17,134.17,154.69,304.24
822,0.3445,-0.0826,-0.8841,-0.3047,67.96,134.09,154.58,299.09
823,0.3447,-0.0837,-0.8837,-0.3053,67.86,133.95,154.41,300.69
824,0.3448,-0.0847,-0.8833,-0.306,67.75,133.82,154.26,306.32
825,0.3443,-0.086,-0.8833,-0.3062,67.5,133.79,154.13,306.19
826,0.3434,-0.0871,-0.8833,-0.307,67.18,133.71,154.03,302.92
827,0.3437,-0.0879,-0.8826,-0.3085,67.09,133.46,153.86,309.81
828,0.3433,-0.0891,-0.8823,-0.3094,66.83,133.33,153.71,306.6
829,0.3426,-0.0905,-0.8823,-0.3097,66.53,133.3,153.59,303.35
830,0.342,-0.0918,-0.8826,-0.3092,66.32,133.37,153.5,305.22
831,0.3414,-0.0931,-0.8829,-0.3086,66.11,133.45,153.42,301.35
832,0.3409,-0.0943,-0.8829,-0.3087,65.89,133.43,153.3,304.51
833,0.3409,-0.0953,-0.8825,-0.3096,65.73,133.29,153.15,309.15
834,0.3408,-0.0963,-0.8822,-0.3103,65.57,133.17,153.02,305.86
835,0.3403,-0.0975,-0.882,-0.311,65.33,133.08,152.89,305.78
836,0.3399,-0.0985,-0.8818,-0.3119,65.1,132.95,152.77,305.78
837,0.3397,-0.0996,-0.8815,-0.3124,64.93,132.87,152.64,306.79
838,0.3396,-0.1007,-0.8813,-0.3126,64.79,132.81,152.5,304.7
839,0.3391,-0.1018,-0.8814,-0.3127,64.56,132.81,152.42,303.35
840,0.3385,-0.103,-0.8815,-0.3127,64.33,132.82,152.32,307.52
841,0.3384,-0.1042,-0.8814,-0.3127,64.19,132.78,152.18,304.74
842,0.3385,-0.1054,-0.881,-0.3132,64.06,132.68,152.01,307.76
843,0.3384,-0.1065,-0.8807,-0.3139,63.9,132.56,151.88,307.91
844,0.3382,-0.1075,-0.8804,-0.3146,63.72,132.46,151.75,304.51
845,0.3381,-0.1084,-0.8801,-0.3152,63.57,132.35,151.62,305.12
846,0.3381,-0.1094,-0.8797,-0.3159,63.44,132.23,151.48,305.68
847,0.338,-0.1106,-0.8794,-0.3165,63.27,132.13,151.33,307.25
848,0.3374,-0.1118,-0.8794,-0.3167,63.01,132.1,151.22,307.18
849,0.337,-0.113,-0.8793,-0.317,62.8,132.07,151.12,308.2
850,0.337,-0.1141,-0.879,-0.3173,62.67,131.99,150.97,306.32
851,0.337,-0.1151,-0.8787,-0.318,62.54,131.88,150.83,304.49
852,0.3369,-0.1164,-0.8785,-0.3182,62.37,131.82,150.68,309.15
853,0.3363,-0.1176,-0.8785,-0.3184,62.12,131.81,150.58,306.11
854,0.3365,-0.1186,-0.8779,-0.3193,62.01,131.64,150.42,306.79
855,0.3367,-0.1196,-0.8772,-0.3207,61.86,131.43,150.24,305.1
856,0.3364,-0.121,-0.8768,-0.3215,61.6,131.31,150.07,308.98
857,0.3356,-0.1225,-0.877,-0.3211,61.34,131.36,149.97,306.72
858,0.3349,-0.1241,-0.8775,-0.3202,61.1,131.5,149.87,305.12
859,0.3345,-0.1254,-0.8776,-0.3196,60.93,131.57,149.78,306.79
860,0.3346,-0.1265,-0.8773,-0.3199,60.81,131.49,149.63,307.44
861,0.3348,-0.1277,-0.8768,-0.3207,60.7,131.35,149.45,302.05
862,0.3346,-0.1287,-0.8765,-0.3213,60.52,131.26,149.33,308.06
863,0.3338,-0.1297,-0.8764,-0.3219,60.22,131.21,149.25,304.7
864,0.3331,-0.1309,-0.8765,-0.3221,59.94,131.2,149.17,302.91
865,0.3326,-0.1321,-0.8763,-0.3226,59.69,131.13,149.05,306.79
866,0.3322,-0.1331,-0.876,-0.3233,59.46,131.05,148.94,305.54
867,0.3312,-0.1343,-0.8762,-0.3233,59.16,131.09,148.87,304.11
868,0.3307,-0.1357,-0.8763,-0.3229,58.94,131.13,148.77,307.33
869,0.3306,-0.1369,-0.8763,-0.3226,58.83,131.15,148.65,303.47
870,0.3306,-0.1379,-0.876,-0.323,58.7,131.08,148.52,309.41
871,0.3304,-0.1391,-0.8757,-0.3236,58.5,130.98,148.38,304.7
872,0.3301,-0.1401,-0.8753,-0.3245,58.27,130.87,148.26,305.12
873,0.3293,-0.1411,-0.8752,-0.3251,57.99,130.82,148.19,306.32
874,0.3283,-0.142,-0.8753,-0.3255,57.67,130.81,148.15,305.88
875,0.3273,-0.143,-0.8754,-0.3256,57.36,130.84,148.1,307.54
876,0.3264,-0.1439,-0.8756,-0.3256,57.1,130.88,148.07,304.03
877,0.3258,-0.145,-0.8758,-0.3254,56.89,130.92,148.0,307.13
878,0.3248,-0.1462,-0.8762,-0.3246,56.62,131.06,147.96,305.22
879,0.3242,-0.147,-0.8761,-0.3251,56.39,131.02,147.9,303.47
880,0.3242,-0.1475,-0.8756,-0.3263,56.26,130.85,147.8,305.88
881,0.3234,-0.1486,-0.8754,-0.3272,55.94,130.77,147.71,304.59
882,0.322,-0.1497,-0.8758,-0.327,55.56,130.86,147.7,306.71
883,0.3204,-0.151,-0.8765,-0.326,55.19,131.06,147.7,305.77
884,0.3192,-0.1521,-0.877,-0.3254,54.89,131.19,147.68,305.74
885,0.3189,-0.1531,-0.8768,-0.3257,54.7,131.14,147.57,307.74
886,0.3188,-0.1539,-0.8763,-0.3268,54.53,131.0,147.46,307.37
887,0.3183,-0.1549,-0.8761,-0.3275,54.29,130.93,147.37,306.95
888,0.3172,-0.1557,-0.8761,-0.3281,53.94,130.9,147.34,308.06
889,0.3163,-0.1565,-0.876,-0.3288,53.66,130.85,147.29,304.14
890,0.3161,-0.1575,-0.8756,-0.3295,53.45,130.76,147.18,302.88
891,0.3159,-0.1583,-0.8752,-0.3303,53.28,130.64,147.07,302.74
892,0.3154,-0.1592,-0.875,-0.3309,53.06,130.59,146.99,302.92
893,0.3145,-0.1604,-0.8752,-0.3308,52.77,130.62,146.92,306.79
894,0.3138,-0.1617,-0.8753,-0.3306,52.52,130.67,146.84,302.92
895,0.3134,-0.1628,-0.8751,-0.331,52.29,130.63,146.74,307.41
896,0.3131,-0.1637,-0.8747,-0.3318,52.09,130.52,146.63,306.15
897,0.3127,-0.1647,-0.8742,-0.3329,51.84,130.38,146.51,301.37
898,0.3125,-0.1656,-0.8737,-0.334,51.62,130.24,146.4,309.26
899,0.3122,-0.1667,-0.8733,-0.3349,51.4,130.13,146.28,308.31
900,0.3114,-0.1678,-0.8731,-0.3354,51.1,130.09,146.2,307.81
901,0.3104,-0.1688,-0.8732,-0.3358,50.78,130.09,146.15,307.26
902,0.3099,-0.1699,-0.8729,-0.3362,50.54,130.04,146.05,303.35
903,0.3097,-0.1708,-0.8726,-0.3367,50.36,129.97,145.95,304.59
904,0.3093,-0.1722,-0.8725,-0.3369,50.13,129.95,145.83,304.03
905,0.3082,-0.1735,-0.8727,-0.3367,49.81,130.02,145.76,299.58
906,0.3075,-0.1743,-0.8724,-0.3375,49.53,129.94,145.69,306.15
907,0.3074,-0.1751,-0.8716,-0.3394,49.29,129.71,145.57,309.09
908,0.3075,-0.1762,-0.8708,-0.3407,49.12,129.51,145.41,305.3
909,0.3074,-0.1773,-0.8705,-0.3409,48.96,129.47,145.28,307.74
910,0.3066,-0.1787,-0.8708,-0.3402,48.72,129.58,145.2,307.33
911,0.3055,-0.1801,-0.8712,-0.3395,48.41,129.71,145.14,304.45
912,0.3049,-0.1812,-0.871,-0.3399,48.16,129.68,145.05,301.21
913,0.305,-0.1822,-0.8704,-0.3409,48.0,129.53,144.92,306.87
914,0.3052,-0.1832,-0.8698,-0.3418,47.86,129.4,144.77,307.91
915,0.3048,-0.1843,-0.8694,-0.3425,47.63,129.31,144.66,306.44
916,0.304,-0.1854,-0.8692,-0.3432,47.3,129.25,144.58,307.91
917,0.3036,-0.1864,-0.8687,-0.344,47.07,129.16,144.47,305.68
918,0.3037,-0.1873,-0.8683,-0.3447,46.94,129.06,144.35,309.7
919,0.303,-0.1883,-0.8683,-0.3447,46.7,129.07,144.29,304.51
920,0.3018,-0.1897,-0.8686,-0.3443,46.36,129.19,144.23,307.18
921,0.3012,-0.191,-0.8686,-0.3441,46.12,129.22,144.13,306.95
922,0.3013,-0.192,-0.8681,-0.3447,46.0,129.13,144.01,301.76
923,0.3014,-0.1929,-0.8675,-0.3456,45.85,128.98,143.87,304.59
924,0.3013,-0.1938,-0.8669,-0.3467,45.66,128.84,143.75,308.41
925,0.3009,-0.1949,-0.8664,-0.3476,45.41,128.73,143.64,305.86
926,0.3003,-0.196,-0.8662,-0.348,45.15,128.71,143.55,305.68
927,0.2997,-0.197,-0.866,-0.3484,44.89,128.68,143.48,304.24
928,0.299,-0.1981,-0.866,-0.3485,44.63,128.69,143.4,306.3
929,0.2986,-0.1993,-0.8656,-0.3489,44.42,128.64,143.29,307.18
930,0.2985,-0.2004,-0.8652,-0.3494,44.23,128.57,143.16,310.52
931,0.2983,-0.2014,-0.8649,-0.3498,44.06,128.52,143.06,308.47
932,0.2978,-0.2026,-0.8646,-0.3502,43.81,128.48,142.96,304.11
933,0.2975,-0.2037,-0.8643,-0.3508,43.6,128.42,142.85,307.76
934,0.2972,-0.2046,-0.8639,-0.3514,43.4,128.34,142.76,303.8
935,0.2968,-0.2057,-0.8636,-0.3519,43.16,128.28,142.65,307.61
936,0.2964,-0.2069,-0.8632,-0.3525,42.92,128.23,142.54,304.51
937,0.2958,-0.2081,-0.863,-0.3528,42.66,128.2,142.44,306.71
938,0.2954,-0.2091,-0.8627,-0.3532,42.43,128.16,142.35,306.79
939,0.295,-0.2103,-0.8624,-0.3535,42.22,128.12,142.24,306.95
940,0.2945,-0.2113,-0.8622,-0.3539,41.99,128.09,142.15,302.24
941,0.294,-0.2125,-0.8619,-0.3542,41.74,128.08,142.05,311.84
942,0.2935,-0.2138,-0.8616,-0.3546,41.49,128.03,141.94,307.87
943,0.2928,-0.2147,-0.8614,-0.3552,41.2,127.99,141.87,306.95
944,0.2926,-0.2158,-0.8609,-0.3559,40.99,127.9,141.75,304.59
945,0.2925,-0.2165,-0.8605,-0.3566,40.85,127.81,141.67,303.57
946,0.2921,-0.2177,-0.8602,-0.3568,40.63,127.8,141.56,303.92
947,0.291,-0.2193,-0.8604,-0.3564,40.29,127.89,141.48,304.6
948,0.291,-0.22,-0.8598,-0.3574,40.12,127.76,141.38,303.47
949,0.2911,-0.2208,-0.859,-0.3587,39.96,127.58,141.25,308.47
950,0.2909,-0.2219,-0.8585,-0.3592,39.75,127.51,141.14,306.79
951,0.2904,-0.2231,-0.8585,-0.3591,39.55,127.54,141.05,306.8
952,0.2896,-0.2245,-0.8587,-0.3583,39.33,127.67,140.96,305.09
953,0.289,-0.2258,-0.8587,-0.358,39.1,127.73,140.87,307.41
954,0.2886,-0.2268,-0.8584,-0.3584,38.9,127.69,140.78,307.6
955,0.2884,-0.2277,-0.8579,-0.3591,38.7,127.6,140.68,304.7
956,0.2881,-0.2287,-0.8575,-0.3597,38.49,127.54,140.58,303.57
957,0.2876,-0.2297,-0.8571,-0.3604,38.24,127.46,140.5,301.18
958,0.2873,-0.2307,-0.8566,-0.3612,38.01,127.38,140.4,305.16
959,0.2872,-0.2319,-0.8561,-0.3618,37.8,127.3,140.26,306.79
960,0.2871,-0.2329,-0.8558,-0.3619,37.66,127.27,140.15,305.54
961,0.2867,-0.2341,-0.8557,-0.3617,37.47,127.3,140.05,306.25
962,0.286,-0.2355,-0.8556,-0.3616,37.22,127.34,139.95,310.38
963,0.2859,-0.2368,-0.8553,-0.3615,37.07,127.34,139.82,305.22
964,0.2861,-0.2378,-0.8548,-0.3619,36.96,127.27,139.68,308.84
965,0.2862,-0.2387,-0.8541,-0.3627,36.81,127.15,139.56,303.35
966,0.2862,-0.2396,-0.8534,-0.3637,36.63,127.02,139.44,305.77
967,0.2861,-0.2407,-0.8528,-0.3647,36.42,126.9,139.32,306.32
968,0.2859,-0.2419,-0.8524,-0.3651,36.2,126.85,139.2,310.14
969,0.2854,-0.243,-0.8521,-0.3652,35.99,126.84,139.11,304.65
970,0.285,-0.2443,-0.852,-0.365,35.8,126.87,139.0,305.68
971,0.2848,-0.2455,-0.8517,-0.365,35.63,126.88,138.89,300.83
972,0.2847,-0.2466,-0.8514,-0.3651,35.47,126.86,138.77,307.52
973,0.2844,-0.2477,-0.851,-0.3654,35.29,126.82,138.66,310.38
974,0.2842,-0.2489,-0.8507,-0.3656,35.1,126.8,138.54,304.24
975,0.284,-0.25,-0.8502,-0.366,34.91,126.75,138.43,302.38
976,0.2839,-0.2511,-0.8497,-0.3666,34.73,126.67,138.31,307.54
977,0.2837,-0.2521,-0.8492,-0.3671,34.52,126.61,138.2,302.92
978,0.2832,-0.2531,-0.8489,-0.3675,34.29,126.58,138.13,309.15
979,0.283,-0.2543,-0.8484,-0.3679,34.09,126.53,137.99,304.14
980,0.2831,-0.2553,-0.8479,-0.3685,33.94,126.44,137.88,305.58
981,0.2827,-0.2564,-0.8475,-0.3689,33.72,126.4,137.77,301.1
982,0.2821,-0.258,-0.8474,-0.3685,33.46,126.47,137.65,304.99
983,0.2816,-0.2593,-0.847,-0.3688,33.21,126.45,137.54,304.62
984,0.2818,-0.2601,-0.8462,-0.3701,33.05,126.27,137.42,301.11
985,0.2817,-0.261,-0.8454,-0.3712,32.82,126.14,137.31,307.52
986,0.2808,-0.2623,-0.8451,-0.3716,32.49,126.13,137.22,311.11
987,0.28,-0.2637,-0.8453,-0.371,32.24,126.24,137.14,307.74
988,0.2796,-0.265,-0.8453,-0.3702,32.1,126.34,137.03,307.91
989,0.2795,-0.2661,-0.8449,-0.3704,31.94,126.32,136.92,305.3
990,0.2792,-0.2671,-0.8444,-0.3711,31.72,126.24,136.81,302.44
991,0.279,-0.2683,-0.8439,-0.3717,31.5,126.17,136.7,306.23
992,0.2781,-0.2692,-0.8436,-0.3722,31.19,126.15,136.65,309.04
993,0.2775,-0.2702,-0.8433,-0.3726,30.93,126.13,136.58,303.47
994,0.2769,-0.2713,-0.8431,-0.3727,30.69,126.15,136.49,307.74
995,0.2762,-0.2722,-0.8428,-0.3732,30.43,126.12,136.43,306.79
996,0.2754,-0.2732,-0.8427,-0.3734,30.16,126.14,136.38,307.65
997,0.2748,-0.2744,-0.8426,-0.3731,29.95,126.21,136.3,302.38
998,0.2745,-0.2757,-0.8424,-0.3727,29.79,126.25,136.18,306.3
999,0.2745,-0.2766,-0.8421,-0.3728,29.67,126.23,136.08,305.74
1000,0.2741,-0.2776,-0.8417,-0.3733,29.45,126.18,135.99,306.03
1001,0.2738,-0.2785,-0.8411,-0.3742,29.21,126.09,135.9,304.01
1002,0.2732,-0.2795,-0.8406,-0.3749,28.92,126.03,135.82,302.01
1003,0.2726,-0.2804,-0.8403,-0.3755,28.65,126.0,135.76,303.21
1004,0.2718,-0.2815,-0.84,-0.3759,28.37,125.99,135.69,307.37
1005,0.2714,-0.2826,-0.8397,-0.376,28.14,125.98,135.6,309.76
1006,0.271,-0.2836,-0.8394,-0.3762,27.96,125.97,135.51,306.71
1007,0.2704,-0.2846,-0.8392,-0.3764,27.72,125.98,135.44,308.02
1008,0.2698,-0.2857,-0.839,-0.3764,27.49,126.01,135.36,305.77
1009,0.269,-0.2869,-0.8388,-0.3764,27.23,126.04,135.29,304.24
1010,0.2682,-0.2879,-0.8387,-0.3765,26.97,126.08,135.23,306.87
1011,0.2674,-0.2888,-0.8386,-0.3765,26.71,126.11,135.18,305.84
1012,0.2666,-0.2897,-0.8385,-0.3767,26.46,126.13,135.14,305.1
1013,0.2654,-0.2906,-0.8385,-0.3768,26.14,126.18,135.12,305.69
1014,0.2645,-0.292,-0.8387,-0.376,25.89,126.33,135.04,305.68
1015,0.2636,-0.2929,-0.8387,-0.3759,25.65,126.39,135.0,306.87
1016,0.2632,-0.2934,-0.8382,-0.3769,25.43,126.29,134.96,304.55
1017,0.262,-0.2943,-0.8382,-0.3772,25.08,126.33,134.94,304.65
1018,0.2604,-0.2955,-0.8385,-0.3766,24.73,126.48,134.92,305.68
1019,0.2592,-0.2968,-0.839,-0.3752,24.51,126.71,134.87,306.95
1020,0.2585,-0.2981,-0.8393,-0.374,24.35,126.88,134.79,305.58
1021,0.2579,-0.299,-0.8392,-0.3739,24.16,126.92,134.73,306.32
1022,0.2569,-0.2999,-0.839,-0.3743,23.86,126.93,134.69,303.21
1023,0.2561,-0.3009,-0.8389,-0.3744,23.58,126.95,134.64,307.33
1024,0.255,-0.3018,-0.8388,-0.3747,23.26,126.98,134.6,306.79
1025,0.2539,-0.3026,-0.8385,-0.3753,22.93,126.97,134.58,305.68
1026,0.2532,-0.3036,-0.8382,-0.3757,22.64,126.96,134.52,304.45
1027,0.2528,-0.3045,-0.8376,-0.3764,22.4,126.89,134.43,305.2
1028,0.2526,-0.3052,-0.8373,-0.3769,22.24,126.84,134.37,307.44
1029,0.2522,-0.3063,-0.837,-0.3769,22.06,126.85,134.27,303.47
1030,0.2518,-0.3075,-0.8367,-0.3768,21.86,126.88,134.16,309.26
1031,0.2517,-0.3085,-0.8362,-0.3772,21.69,126.83,134.06,305.68
1032,0.2514,-0.3094,-0.8355,-0.3781,21.46,126.74,133.97,305.68
1033,0.2509,-0.3103,-0.835,-0.3789,21.18,126.66,133.9,308.98
1034,0.2504,-0.3112,-0.8344,-0.3798,20.91,126.59,133.83,304.62
1035,0.2501,-0.3118,-0.834,-0.3805,20.71,126.52,133.77,307.26
1036,0.2497,-0.3128,-0.8335,-0.3809,20.5,126.48,133.67,302.81
1037,0.2493,-0.3139,-0.8329,-0.3814,20.26,126.44,133.58,309.09
1038,0.249,-0.315,-0.8325,-0.3817,20.06,126.42,133.48,309.75
1039,0.2484,-0.316,-0.8322,-0.382,19.82,126.41,133.4,306.3
1040,0.2479,-0.3168,-0.8317,-0.3826,19.57,126.37,133.34,305.09
1041,0.2477,-0.3178,-0.8311,-0.3833,19.37,126.29,133.24,304.59
1042,0.2474,-0.3187,-0.8306,-0.3839,19.15,126.23,133.16,302.92
1043,0.247,-0.3199,-0.8301,-0.3842,18.91,126.21,133.05,303.15
1044,0.246,-0.321,-0.8299,-0.3844,18.6,126.24,132.99,304.14
1045,0.2459,-0.3214,-0.829,-0.386,18.36,126.07,132.94,303.8
1046,0.2457,-0.3223,-0.8281,-0.3873,18.11,125.91,132.84,303.45
1047,0.2455,-0.3234,-0.8274,-0.388,17.87,125.84,132.73,308.59
1048,0.2454,-0.3246,-0.827,-0.3878,17.73,125.86,132.6,302.18
1049,0.2451,-0.3259,-0.8269,-0.3872,17.6,125.93,132.48,306.11
1050,0.2446,-0.327,-0.8267,-0.3871,17.39,125.98,132.39,305.69
1051,0.2442,-0.3279,-0.8262,-0.3877,17.16,125.93,132.32,302.86
1052,0.2436,-0.3288,-0.8256,-0.3886,16.88,125.85,132.25,309.7
1053,0.2431,-0.3297,-0.8251,-0.389,16.64,125.82,132.18,307.26
1054,0.2425,-0.3307,-0.8247,-0.3895,16.36,125.8,132.1,307.44
1055,0.2419,-0.3316,-0.8242,-0.3901,16.09,125.76,132.04,305.77
1056,0.2417,-0.3325,-0.8235,-0.391,15.88,125.66,131.94,306.08
1057,0.2417,-0.3335,-0.8228,-0.3916,15.69,125.59,131.84,302.5
1058,0.2411,-0.3345,-0.8225,-0.3917,15.46,125.6,131.76,302.86
1059,0.2401,-0.3358,-0.8224,-0.3915,15.17,125.68,131.68,307.26
1060,0.2396,-0.3371,-0.8221,-0.3913,14.95,125.72,131.57,304.59
1061,0.2395,-0.338,-0.8216,-0.3917,14.79,125.68,131.47,305.74
1062,0.2393,-0.3389,-0.8209,-0.3924,14.58,125.61,131.38,303.58
1063,0.239,-0.3398,-0.8202,-0.3933,14.33,125.52,131.3,305.86
1064,0.2387,-0.3406,-0.8195,-0.3942,14.09,125.43,131.22,305.68
1065,0.2383,-0.3416,-0.8189,-0.3949,13.83,125.36,131.14,306.79
1066,0.2375,-0.3425,-0.8186,-0.3953,13.56,125.36,131.08,307.65
1067,0.2369,-0.3436,-0.8182,-0.3954,13.33,125.38,131.0,308.54
1068,0.2367,-0.3446,-0.8178,-0.3955,13.16,125.38,130.9,306.79
1069,0.2363,-0.3456,-0.8175,-0.3956,12.97,125.39,130.82,307.81
1070,0.2355,-0.3466,-0.8172,-0.3956,12.7,125.42,130.75,307.81
1071,0.2349,-0.3476,-0.8168,-0.396,12.45,125.4,130.67,303.59
1072,0.2351,-0.3483,-0.8161,-0.3967,12.32,125.31,130.58,309.26
1073,0.2348,-0.3493,-0.8154,-0.3974,12.1,125.25,130.49,302.86
1074,0.234,-0.3506,-0.8151,-0.3974,11.81,125.29,130.4,306.37
1075,0.2334,-0.3514,-0.8146,-0.3982,11.53,125.23,130.34,303.47
1076,0.2335,-0.3519,-0.8136,-0.3995,11.34,125.07,130.27,309.81
1077,0.2328,-0.3532,-0.8131,-0.4,11.02,125.05,130.17,305.58
1078,0.2324,-0.3546,-0.8127,-0.3997,10.83,125.1,130.04,302.26
1079,0.2319,-0.3559,-0.8125,-0.3992,10.64,125.18,129.93,307.04
1080,0.2313,-0.3574,-0.8123,-0.3987,10.42,125.27,129.81,300.96
1081,0.2309,-0.3583,-0.8118,-0.399,10.21,125.25,129.72,307.81
1082,0.2306,-0.3591,-0.8111,-0.3999,9.97,125.16,129.65,304.01
1083,0.2301,-0.3602,-0.8105,-0.4005,9.7,125.13,129.56,302.5
1084,0.2296,-0.3611,-0.81,-0.401,9.45,125.1,129.49,305.86
1085,0.229,-0.362,-0.8095,-0.4016,9.17,125.06,129.43,307.44
1086,0.2286,-0.363,-0.8089,-0.402,8.94,125.03,129.33,305.58
1087,0.2285,-0.3641,-0.8083,-0.4023,8.77,125.0,129.21,300.96
1088,0.2283,-0.3651,-0.8078,-0.4025,8.61,124.98,129.12,303.35
1089,0.2277,-0.3663,-0.8075,-0.4023,8.38,125.04,129.02,301.61
1090,0.2273,-0.3677,-0.8072,-0.402,8.18,125.09,128.89,304.65
1091,0.2275,-0.3688,-0.8065,-0.4022,8.05,125.06,128.75,306.27
1092,0.2274,-0.3698,-0.8056,-0.4032,7.81,124.94,128.64,304.24
1093,0.2271,-0.3707,-0.8047,-0.4043,7.55,124.83,128.56,309.32
1094,0.2269,-0.3716,-0.8038,-0.4054,7.27,124.71,128.47,305.2
1095,0.2264,-0.3728,-0.8031,-0.406,6.99,124.67,128.37,301.84
1096,0.2258,-0.3739,-0.8027,-0.4061,6.75,124.69,128.28,306.3
1097,0.2254,-0.3752,-0.8022,-0.406,6.52,124.73,128.16,308.66
1098,0.225,-0.3765,-0.8017,-0.406,6.31,124.74,128.04,305.88
1099,0.2248,-0.3775,-0.8012,-0.4063,6.14,124.72,127.93,303.92
1100,0.2248,-0.3786,-0.8005,-0.4066,5.96,124.69,127.81,307.94
1101,0.2247,-0.3796,-0.7998,-0.4071,5.77,124.64,127.7,305.07
1102,0.2242,-0.3806,-0.7992,-0.4076,5.52,124.6,127.63,306.79
1103,0.2235,-0.3816,-0.7987,-0.4081,5.22,124.59,127.56,306.32
1104,0.2231,-0.3826,-0.7981,-0.4085,4.99,124.56,127.46,307.54
1105,0.2229,-0.3836,-0.7974,-0.409,4.76,124.51,127.36,307.37
1106,0.2225,-0.3847,-0.7968,-0.4094,4.54,124.49,127.26,305.84
1107,0.2221,-0.3862,-0.7965,-0.4089,4.35,124.57,127.12,307.41
1108,0.2218,-0.3871,-0.7959,-0.4093,4.15,124.54,127.04,305.1
1109,0.2218,-0.3877,-0.7951,-0.4104,3.96,124.41,126.97,302.44
1110,0.2212,-0.3888,-0.7943,-0.4111,3.65,124.36,126.88,307.81
1111,0.2206,-0.3901,-0.7938,-0.4111,3.38,124.39,126.77,306.87
1112,0.2199,-0.3917,-0.7937,-0.4103,3.16,124.53,126.63,303.15
1113,0.2196,-0.3932,-0.7934,-0.4095,3.02,124.64,126.48,306.79
1114,0.2194,-0.3942,-0.7929,-0.4096,2.86,124.64,126.38,305.77
1115,0.2193,-0.3951,-0.7922,-0.4103,2.67,124.56,126.29,304.44
1116,0.2191,-0.396,-0.7914,-0.4109,2.46,124.5,126.19,304.59
1117,0.2184,-0.397,-0.7909,-0.4114,2.15,124.49,126.12,304.1
1118,0.2177,-0.398,-0.7905,-0.4115,1.9,124.51,126.04,302.76
1119,0.2171,-0.3992,-0.7901,-0.4114,1.68,124.56,125.95,304.51
1120,0.2164,-0.4002,-0.7896,-0.4117,1.41,124.57,125.88,306.87
1121,0.2157,-0.4013,-0.7893,-0.4116,1.16,124.62,125.8,303.33
1122,0.215,-0.4026,-0.7891,-0.4111,0.96,124.72,125.69,305.16
1123,0.2149,-0.4037,-0.7887,-0.4108,0.85,124.76,125.57,305.58
1124,0.2146,-0.4047,-0.7883,-0.4108,0.68,124.78,125.47,306.32
1125,0.2139,-0.4056,-0.788,-0.411,0.43,124.8,125.42,305.78
1126,0.2131,-0.4065,-0.7876,-0.4112,0.16,124.82,125.36,303.69
1127,0.2123,-0.4074,-0.7873,-0.4114,359.9,124.85,125.31,305.54
1128,0.2114,-0.4082,-0.7871,-0.4112,359.66,124.92,125.26,302.91
1129,0.2105,-0.4093,-0.787,-0.4109,359.42,125.01,125.19,306.79
1130,0.2095,-0.4104,-0.787,-0.4103,359.2,125.14,125.12,305.16
1131,0.2087,-0.4113,-0.7868,-0.4101,358.98,125.2,125.07,306.37
1132,0.208,-0.4122,-0.7867,-0.4098,358.79,125.29,125.0,311.15
1133,0.2069,-0.4132,-0.7867,-0.4093,358.54,125.4,124.95,307.91
1134,0.2058,-0.4143,-0.7866,-0.409,358.27,125.51,124.89,309.81
1135,0.2047,-0.4152,-0.7865,-0.4089,357.99,125.59,124.85,304.65
1136,0.2038,-0.4161,-0.786,-0.4093,357.68,125.6,124.81,309.32
1137,0.203,-0.4166,-0.7857,-0.4098,357.42,125.58,124.79,307.68
1138,0.2021,-0.4177,-0.7852,-0.4101,357.11,125.6,124.72,305.09
1139,0.2008,-0.419,-0.7851,-0.4095,356.81,125.74,124.65,304.14
1140,0.1999,-0.4197,-0.7847,-0.41,356.51,125.74,124.62,301.11
1141,0.1993,-0.4202,-0.784,-0.4111,356.22,125.65,124.58,305.58
1142,0.1987,-0.4212,-0.7833,-0.4118,355.92,125.6,124.51,303.33
1143,0.198,-0.4222,-0.7828,-0.412,355.67,125.63,124.44,307.18
1144,0.1973,-0.4235,-0.7827,-0.4112,355.48,125.76,124.33,310.56
1145,0.1967,-0.4247,-0.7826,-0.4104,355.32,125.9,124.22,308.54
1146,0.1961,-0.4257,-0.7822,-0.4105,355.12,125.92,124.14,309.04
1147,0.1957,-0.4263,-0.7815,-0.4112,354.88,125.86,124.08,306.53
1148,0.1954,-0.4271,-0.7809,-0.4119,354.65,125.79,124.02,303.92
1149,0.1944,-0.4278,-0.7803,-0.4127,354.3,125.76,123.99,303.47
1150,0.1934,-0.4286,-0.7799,-0.4132,353.98,125.77,123.96,302.91
1151,0.1926,-0.4295,-0.7794,-0.4135,353.7,125.78,123.89,307.44
1152,0.1924,-0.4302,-0.7787,-0.4142,353.48,125.72,123.83,306.87
1153,0.1921,-0.4308,-0.7781,-0.4148,353.29,125.67,123.77,308.2
1154,0.1915,-0.4319,-0.7777,-0.4148,353.06,125.7,123.69,303.93
1155,0.1909,-0.4329,-0.7773,-0.4147,352.86,125.75,123.6,308.13
1156,0.1905,-0.4339,-0.7768,-0.4147,352.67,125.78,123.5,307.18
1157,0.1902,-0.4348,-0.7761,-0.4153,352.44,125.73,123.42,307.91
1158,0.1898,-0.4355,-0.7753,-0.4162,352.17,125.65,123.37,302.92
1159,0.1893,-0.4361,-0.7746,-0.417,351.91,125.59,123.32,302.96
1160,0.1889,-0.4368,-0.7739,-0.4178,351.66,125.52,123.26,303.58
1161,0.1882,-0.4376,-0.7734,-0.4183,351.4,125.5,123.22,307.91
1162,0.1876,-0.4384,-0.7728,-0.4188,351.12,125.49,123.15,305.2
1163,0.187,-0.4394,-0.7723,-0.419,350.91,125.5,123.07,308.42
1164,0.1866,-0.4403,-0.7717,-0.4192,350.69,125.51,122.98,304.62
1165,0.1861,-0.4414,-0.7712,-0.4193,350.46,125.53,122.89,308.06
1166,0.1855,-0.4424,-0.7706,-0.4196,350.21,125.54,122.8,305.2
1167,0.1851,-0.4433,-0.77,-0.42,349.98,125.52,122.72,303.45
1168,0.1846,-0.4441,-0.7693,-0.4206,349.73,125.48,122.65,304.62
1169,0.1839,-0.4449,-0.7686,-0.4213,349.42,125.44,122.6,306.37
1170,0.1834,-0.4457,-0.768,-0.4219,349.17,125.41,122.54,304.99
1171,0.1829,-0.4465,-0.7673,-0.4224,348.93,125.38,122.47,308.06
1172,0.1826,-0.4473,-0.7667,-0.4227,348.73,125.36,122.39,306.53
1173,0.182,-0.4487,-0.7663,-0.4223,348.52,125.44,122.26,305.88
1174,0.1813,-0.4496,-0.7658,-0.4225,348.28,125.47,122.19,302.92
1175,0.1811,-0.45,-0.7649,-0.4238,348.03,125.33,122.16,307.04
1176,0.1804,-0.4509,-0.7641,-0.4246,347.69,125.28,122.09,309.04
1177,0.1801,-0.452,-0.7634,-0.4249,347.47,125.27,121.99,306.79
1178,0.1799,-0.4532,-0.7629,-0.4245,347.33,125.34,121.85,305.84
1179,0.1791,-0.4547,-0.7627,-0.4236,347.14,125.49,121.71,307.52
1180,0.1784,-0.4559,-0.7623,-0.4234,346.91,125.57,121.61,303.58
1181,0.1781,-0.4567,-0.7616,-0.4239,346.69,125.53,121.53,307.26
1182,0.1777,-0.4575,-0.7607,-0.4247,346.41,125.46,121.46,308.98
1183,0.1773,-0.4583,-0.76,-0.4254,346.17,125.41,121.39,308.2
1184,0.1764,-0.459,-0.7594,-0.426,345.86,125.4,121.35,305.78
1185,0.1753,-0.46,-0.7589,-0.4263,345.51,125.43,121.3,303.92
1186,0.1749,-0.461,-0.7582,-0.4266,345.28,125.42,121.2,308.79
1187,0.1746,-0.462,-0.7576,-0.4269,345.07,125.42,121.11,307.74
1188,0.1737,-0.4631,-0.7571,-0.4267,344.81,125.49,121.01,306.79
1189,0.1728,-0.4645,-0.7567,-0.4263,344.54,125.6,120.89,307.52
1190,0.1723,-0.4656,-0.7561,-0.4264,344.31,125.63,120.78,305.1
1191,0.1721,-0.4666,-0.7553,-0.4268,344.1,125.59,120.68,307.91
1192,0.1716,-0.4675,-0.7545,-0.4275,343.82,125.55,120.61,307.04
1193,0.171,-0.4682,-0.7537,-0.4283,343.52,125.5,120.55,310.24
1194,0.1704,-0.4689,-0.7531,-0.4288,343.27,125.48,120.5,307.61
1195,0.1697,-0.4699,-0.7526,-0.429,343.01,125.5,120.42,307.81
1196,0.169,-0.471,-0.7521,-0.4289,342.78,125.56,120.33,306.79
1197,0.1684,-0.472,-0.7516,-0.4289,342.55,125.6,120.23,304.7
1198,0.1679,-0.473,-0.751,-0.4291,342.32,125.61,120.14,303.57
1199,0.1674,-0.4739,-0.7504,-0.4292,342.09,125.64,120.06,302.95
1200,0.1668,-0.4749,-0.7499,-0.4294,341.85,125.66,119.97,303.58
1201,0.1664,-0.4758,-0.7492,-0.4297,341.63,125.65,119.88,303.47
1202,0.1658,-0.4767,-0.7485,-0.4301,341.38,125.64,119.81,298.77
1203,0.1654,-0.4777,-0.7478,-0.4304,341.13,125.64,119.71,311.11
1204,0.1649,-0.4786,-0.7472,-0.4307,340.91,125.64,119.62,305.12
1205,0.1643,-0.4796,-0.7467,-0.4307,340.68,125.69,119.54,307.37
1206,0.1635,-0.4806,-0.7461,-0.4308,340.41,125.73,119.45,302.92
1207,0.1632,-0.4816,-0.7455,-0.4309,340.22,125.74,119.35,306.23
1208,0.1631,-0.4824,-0.7448,-0.4312,340.07,125.71,119.26,305.54
1209,0.1628,-0.4836,-0.7441,-0.4312,339.88,125.74,119.13,303.92
1210,0.1619,-0.4848,-0.7438,-0.4308,339.63,125.85,119.03,304.55
1211,0.1615,-0.4849,-0.743,-0.4322,339.36,125.7,119.04,304.49
1212,0.1611,-0.4854,-0.742,-0.4334,339.07,125.6,119.01,306.32
1213,0.1605,-0.4865,-0.7412,-0.4337,338.79,125.61,118.9,301.74
1214,0.1601,-0.4878,-0.7406,-0.4335,338.6,125.67,118.77,301.24
1215,0.1598,-0.4892,-0.7402,-0.4327,338.46,125.79,118.6,308.2
1216,0.1595,-0.4905,-0.7396,-0.4324,338.3,125.85,118.46,307.26
1217,0.1594,-0.4912,-0.7388,-0.433,338.11,125.79,118.38,302.18
1218,0.1593,-0.4919,-0.7377,-0.4341,337.86,125.68,118.3,303.48
1219,0.1592,-0.4928,-0.7368,-0.4347,337.65,125.62,118.2,310.56
1220,0.1587,-0.4937,-0.736,-0.4352,337.39,125.6,118.12,307.13
1221,0.1579,-0.4946,-0.7354,-0.4354,337.11,125.63,118.05,305.1
1222,0.1575,-0.4958,-0.7348,-0.4353,336.92,125.68,117.92,304.62
1223,0.1574,-0.4968,-0.734,-0.4355,336.73,125.68,117.8,305.58
1224,0.157,-0.4977,-0.7334,-0.4356,336.54,125.69,117.71,305.3
1225,0.1565,-0.4989,-0.7328,-0.4355,336.33,125.75,117.58,305.78
1226,0.1562,-0.5002,-0.7321,-0.4351,336.16,125.81,117.43,305.68
1227,0.1564,-0.5012,-0.7314,-0.4353,336.05,125.79,117.3,305.78
1228,0.156,-0.5022,-0.7304,-0.4358,335.77,125.76,117.19,306.03
1229,0.1558,-0.5029,-0.7294,-0.4367,335.52,125.68,117.13,304.14
1230,0.1553,-0.5037,-0.7285,-0.4375,335.23,125.63,117.06,306.37
1231,0.1548,-0.5045,-0.7276,-0.4382,334.95,125.58,116.99,305.3
1232,0.1543,-0.5055,-0.727,-0.4384,334.71,125.61,116.89,303.8
1233,0.1535,-0.5067,-0.7264,-0.4382,334.45,125.68,116.79,303.47
1234,0.1531,-0.5077,-0.7259,-0.438,334.29,125.73,116.68,307.05
1235,0.1528,-0.5086,-0.7254,-0.4379,334.14,125.78,116.57,305.09
1236,0.1524,-0.5096,-0.7247,-0.438,333.93,125.8,116.46,307.18
1237,0.1519,-0.5107,-0.724,-0.4381,333.7,125.83,116.35,308.54
1238,0.1516,-0.5116,-0.7233,-0.4383,333.51,125.84,116.26,306.53
1239,0.151,-0.5125,-0.7225,-0.4387,333.24,125.82,116.17,307.37
1240,0.1504,-0.5133,-0.7218,-0.4392,332.96,125.82,116.11,309.32
1241,0.1498,-0.5142,-0.7211,-0.4395,332.71,125.83,116.03,302.76
1242,0.1495,-0.5151,-0.7204,-0.4397,332.5,125.83,115.92,304.14
1243,0.149,-0.5159,-0.7197,-0.4401,332.28,125.83,115.85,307.18
1244,0.1485,-0.517,-0.719,-0.4402,332.04,125.86,115.74,307.41
1245,0.1481,-0.5183,-0.7185,-0.4394,331.9,125.98,115.58,306.87
1246,0.1478,-0.5189,-0.7178,-0.44,331.69,125.94,115.52,303.92
1247,0.1474,-0.5194,-0.7168,-0.4413,331.39,125.82,115.49,304.11
1248,0.1465,-0.5204,-0.7159,-0.4418,331.04,125.83,115.41,303.8
1249,0.1455,-0.5216,-0.7155,-0.4415,330.77,125.93,115.3,305.86
1250,0.1452,-0.523,-0.7151,-0.4405,330.67,126.09,115.12,306.53
1251,0.145,-0.5242,-0.7145,-0.44,330.56,126.17,114.97,302.38
1252,0.145,-0.5251,-0.7136,-0.4404,330.38,126.13,114.87,306.79
1253,0.1447,-0.5257,-0.7129,-0.441,330.16,126.09,114.8,305.16
1254,0.1441,-0.5266,-0.7122,-0.4413,329.9,126.1,114.72,308.47
1255,0.1427,-0.5274,-0.7118,-0.4413,329.59,126.19,114.68,308.59
1256,0.1418,-0.5283,-0.7114,-0.4412,329.34,126.26,114.61,302.41
1257,0.141,-0.5295,-0.7112,-0.4405,329.15,126.41,114.49,304.24
1258,0.1401,-0.5304,-0.7109,-0.44,328.94,126.53,114.4,303.47
1259,0.1393,-0.5314,-0.7107,-0.4395,328.78,126.65,114.3,305.12
1260,0.1387,-0.5324,-0.7104,-0.4389,328.62,126.76,114.19,306.95
1261,0.138,-0.5335,-0.71,-0.4384,328.46,126.88,114.08,308.42
1262,0.1372,-0.5344,-0.7097,-0.438,328.26,126.99,114.0,302.31
1263,0.1362,-0.5352,-0.7095,-0.4377,328.05,127.09,113.93,306.23
1264,0.135,-0.5362,-0.7092,-0.4374,327.77,127.2,113.85,305.2
1265,0.1339,-0.5371,-0.7088,-0.4373,327.48,127.29,113.78,306.32
1266,0.1331,-0.5379,-0.7084,-0.4371,327.27,127.37,113.71,305.3
1267,0.1321,-0.5388,-0.708,-0.437,327.02,127.46,113.64,306.32
1268,0.1313,-0.5396,-0.7077,-0.4368,326.82,127.53,113.57,305.12
1269,0.1306,-0.5405,-0.7073,-0.4366,326.61,127.62,113.48,306.87
1270,0.1297,-0.5415,-0.7068,-0.4363,326.38,127.72,113.39,305.88
1271,0.129,-0.5424,-0.7063,-0.4362,326.17,127.78,113.3,304.01
1272,0.1281,-0.5433,-0.7058,-0.4361,325.91,127.86,113.21,304.74
1273,0.1274,-0.5441,-0.7053,-0.4363,325.68,127.89,113.15,306.15
1274,0.1268,-0.5447,-0.7046,-0.4368,325.42,127.87,113.09,309.04
1275,0.1264,-0.5453,-0.7038,-0.4374,325.2,127.84,113.03,304.03
1276,0.1259,-0.5463,-0.7031,-0.4374,324.97,127.89,112.92,301.37
1277,0.125,-0.5471,-0.7025,-0.4377,324.69,127.91,112.86,306.87
1278,0.1247,-0.5473,-0.7015,-0.4391,324.39,127.78,112.86,300.69
1279,0.1242,-0.548,-0.7006,-0.4399,324.11,127.73,112.79,305.12
1280,0.1237,-0.549,-0.6998,-0.4399,323.89,127.77,112.68,305.58
1281,0.1235,-0.55,-0.6993,-0.4396,323.79,127.83,112.55,304.0
1282,0.1233,-0.5511,-0.6989,-0.4389,323.7,127.95,112.4,304.55
1283,0.1227,-0.552,-0.6983,-0.4389,323.49,128.0,112.3,307.37
1284,0.122,-0.5526,-0.6974,-0.4397,323.18,127.95,112.26,307.94
1285,0.1216,-0.5532,-0.6965,-0.4404,322.93,127.9,112.2,306.44
1286,0.121,-0.5538,-0.6957,-0.4411,322.65,127.86,112.16,309.65
1287,0.1201,-0.5544,-0.695,-0.4417,322.32,127.86,112.12,304.45
1288,0.1194,-0.5552,-0.6943,-0.4421,322.05,127.88,112.04,305.16
1289,0.1191,-0.5561,-0.6935,-0.4423,321.86,127.88,111.94,306.23
1290,0.1188,-0.5567,-0.6928,-0.4427,321.65,127.87,111.87,307.04
1291,0.1184,-0.5575,-0.6922,-0.4427,321.5,127.91,111.78,309.32
1292,0.1177,-0.5586,-0.6917,-0.4424,321.3,128.0,111.66,307.94
1293,0.1173,-0.5596,-0.6909,-0.4424,321.09,128.04,111.54,309.7
1294,0.1169,-0.5603,-0.69,-0.443,320.85,128.0,111.47,308.13
1295,0.1163,-0.5609,-0.6892,-0.4438,320.55,127.96,111.42,306.15
1296,0.1157,-0.5615,-0.6883,-0.4445,320.26,127.92,111.36,304.01
1297,0.1152,-0.5622,-0.6875,-0.445,320.0,127.91,111.31,311.7
1298,0.1145,-0.5629,-0.6868,-0.4453,319.76,127.93,111.24,305.1
1299,0.1139,-0.5638,-0.6862,-0.4453,319.54,127.98,111.13,306.37
1300,0.1134,-0.5648,-0.6855,-0.4453,319.34,128.03,111.02,311.9
1301,0.113,-0.5656,-0.6848,-0.4454,319.14,128.06,110.93,306.71
1302,0.1125,-0.5665,-0.6841,-0.4455,318.93,128.1,110.82,308.98
1303,0.1118,-0.5673,-0.6834,-0.4456,318.68,128.14,110.74,305.28
1304,0.1111,-0.5681,-0.6826,-0.446,318.41,128.15,110.65,306.15
1305,0.1108,-0.5686,-0.6819,-0.4466,318.21,128.11,110.61,304.99
1306,0.1103,-0.5693,-0.6812,-0.4469,317.98,128.11,110.54,304.24
1307,0.1096,-0.5703,-0.6806,-0.4467,317.75,128.2,110.42,309.15
1308,0.1087,-0.5707,-0.6798,-0.4476,317.42,128.16,110.42,306.3
1309,0.108,-0.5711,-0.6788,-0.4488,317.06,128.07,110.4,305.86
1310,0.1073,-0.572,-0.6779,-0.4492,316.76,128.09,110.3,308.89
1311,0.1069,-0.573,-0.6771,-0.4492,316.58,128.13,110.18,304.44
1312,0.1067,-0.5741,-0.6767,-0.4485,316.49,128.24,110.03,305.22
1313,0.1063,-0.5753,-0.6761,-0.4478,316.38,128.37,109.86,307.87
1314,0.1058,-0.5761,-0.6755,-0.4479,316.18,128.4,109.77,307.37
1315,0.1051,-0.5767,-0.6747,-0.4484,315.9,128.4,109.72,306.71
1316,0.1047,-0.5775,-0.674,-0.4487,315.69,128.42,109.63,303.47
1317,0.1039,-0.5783,-0.6732,-0.4489,315.42,128.45,109.54,310.43
1318,0.1031,-0.579,-0.6726,-0.4492,315.14,128.48,109.49,304.14
1319,0.1024,-0.5798,-0.6718,-0.4494,314.89,128.52,109.39,301.53
1320,0.1022,-0.5806,-0.671,-0.4497,314.7,128.52,109.29,303.58
1321,0.1018,-0.5814,-0.6703,-0.4498,314.53,128.54,109.19,306.53
1322,0.1013,-0.5825,-0.6696,-0.4494,314.35,128.64,109.05,309.26
1323,0.101,-0.5837,-0.6688,-0.4491,314.19,128.72,108.88,308.41
1324,0.1009,-0.5845,-0.6678,-0.4498,313.97,128.67,108.79,305.86
1325,0.1006,-0.5852,-0.6667,-0.4505,313.7,128.61,108.71,303.44
1326,0.1002,-0.5858,-0.6657,-0.4513,313.43,128.57,108.64,305.78
1327,0.1,-0.5865,-0.6646,-0.452,313.19,128.51,108.56,307.44
1328,0.0998,-0.5872,-0.6638,-0.4524,313.0,128.49,108.47,305.2
1329,0.0993,-0.588,-0.6631,-0.4524,312.8,128.53,108.37,309.81
1330,0.0987,-0.589,-0.6624,-0.4523,312.59,128.61,108.25,306.19
1331,0.0984,-0.59,-0.6616,-0.4522,312.42,128.67,108.11,307.44
1332,0.098,-0.5909,-0.6608,-0.4522,312.23,128.71,107.99,304.59
1333,0.0977,-0.5918,-0.66,-0.4524,312.02,128.72,107.88,303.8
1334,0.0972,-0.5927,-0.6591,-0.4525,311.8,128.77,107.76,307.65
1335,0.0966,-0.5935,-0.6582,-0.4529,311.53,128.78,107.67,302.41
1336,0.0962,-0.5942,-0.6572,-0.4536,311.27,128.74,107.59,308.2
1337,0.0958,-0.5947,-0.6564,-0.4542,311.03,128.71,107.55,303.58
1338,0.0953,-0.5957,-0.6556,-0.454,310.84,128.78,107.41,304.62
1339,0.0946,-0.5969,-0.6551,-0.4534,310.65,128.92,107.25,305.88
1340,0.0941,-0.5972,-0.6541,-0.4545,310.36,128.83,107.23,305.77
1341,0.0937,-0.5979,-0.6531,-0.4552,310.1,128.8,107.16,303.47
1342,0.0931,-0.5989,-0.6522,-0.4553,309.84,128.85,107.04,306.11
1343,0.0928,-0.6,-0.6516,-0.4548,309.72,128.95,106.87,305.22
1344,0.0925,-0.6014,-0.6509,-0.4541,309.61,129.09,106.67,308.98
1345,0.0924,-0.6023,-0.65,-0.4542,309.45,129.11,106.54,309.26
1346,0.0923,-0.6027,-0.6489,-0.4551,309.21,129.02,106.49,303.44
1347,0.0917,-0.6033,-0.6479,-0.4559,308.91,128.97,106.43,305.1
1348,0.0912,-0.6042,-0.6472,-0.4559,308.7,129.03,106.32,306.14
1349,0.0902,-0.605,-0.6465,-0.4558,308.45,129.12,106.22,306.23
1350,0.0896,-0.6059,-0.6459,-0.4556,308.25,129.21,106.11,300.23
1351,0.0889,-0.6067,-0.6452,-0.4557,308.01,129.27,106.01,302.91
1352,0.0882,-0.6074,-0.6445,-0.456,307.77,129.29,105.94,301.36
1353,0.0876,-0.6084,-0.6438,-0.4557,307.57,129.39,105.81,302.18
1354,0.0873,-0.6095,-0.6433,-0.455,307.49,129.53,105.63,308.73
1355,0.087,-0.6105,-0.6427,-0.4545,307.39,129.62,105.49,304.14
1356,0.087,-0.6114,-0.6418,-0.4545,307.26,129.64,105.35,305.78
1357,0.0865,-0.612,-0.641,-0.455,307.01,129.63,105.28,309.81
1358,0.0857,-0.6126,-0.6401,-0.4558,306.68,129.62,105.24,308.13
1359,0.0847,-0.6131,-0.6393,-0.4563,306.36,129.63,105.19,306.32
1360,0.0838,-0.6139,-0.6387,-0.4562,306.1,129.72,105.09,304.05
1361,0.0831,-0.6149,-0.6383,-0.4555,305.98,129.88,104.95,306.79
1362,0.0825,-0.6161,-0.6379,-0.4547,305.87,130.04,104.79,303.8
1363,0.082,-0.6171,-0.6373,-0.4541,305.74,130.17,104.64,304.0
1364,0.0815,-0.6181,-0.637,-0.4535,305.66,130.3,104.5,302.95
1365,0.0807,-0.619,-0.6366,-0.4528,305.51,130.46,104.37,305.69
1366,0.0797,-0.62,-0.6362,-0.4522,305.31,130.62,104.25,306.37
1367,0.079,-0.6208,-0.6356,-0.4521,305.12,130.7,104.14,306.87
1368,0.0782,-0.6214,-0.6351,-0.4522,304.9,130.76,104.07,304.14
1369,0.0774,-0.6223,-0.6346,-0.4517,304.71,130.89,103.95,307.13
1370,0.0766,-0.6235,-0.6343,-0.4506,304.62,131.11,103.76,305.16
1371,0.0759,-0.624,-0.6336,-0.4511,304.36,131.12,103.72,307.81
1372,0.075,-0.6244,-0.6327,-0.4519,304.01,131.09,103.69,305.69
1373,0.074,-0.6253,-0.6321,-0.4517,303.76,131.2,103.58,305.16
1374,0.0733,-0.6264,-0.6316,-0.451,303.61,131.37,103.42,308.59
1375,0.0729,-0.6277,-0.6312,-0.4497,303.61,131.57,103.21,307.65
1376,0.0725,-0.6288,-0.6308,-0.4488,303.54,131.75,103.03,304.14
1377,0.0719,-0.6295,-0.6301,-0.4489,303.33,131.8,102.94,306.19
1378,0.0712,-0.63,-0.6293,-0.4495,303.05,131.79,102.89,302.88
1379,0.0706,-0.6304,-0.6286,-0.45,302.81,131.78,102.85,305.77
1380,0.0695,-0.6309,-0.6279,-0.4505,302.49,131.81,102.81,306.87
1381,0.0685,-0.6313,-0.6274,-0.4507,302.22,131.87,102.76,306.3
1382,0.0676,-0.6322,-0.6266,-0.4507,301.97,131.96,102.65,306.95
1383,0.067,-0.6328,-0.6258,-0.451,301.71,131.98,102.58,304.14
1384,0.0666,-0.6334,-0.625,-0.4515,301.5,131.97,102.5,302.88
1385,0.0661,-0.6342,-0.6243,-0.4514,301.33,132.04,102.38,304.74
1386,0.0656,-0.6351,-0.6235,-0.4512,301.15,132.13,102.24,308.73
1387,0.0651,-0.636,-0.6228,-0.451,300.99,132.22,102.1,307.91
1388,0.0646,-0.6366,-0.622,-0.4512,300.76,132.24,102.02,306.35
1389,0.0639,-0.6372,-0.6212,-0.4517,300.5,132.26,101.96,299.49
1390,0.0631,-0.6375,-0.6203,-0.4526,300.18,132.21,101.94,306.15
1391,0.0626,-0.638,-0.6193,-0.4534,299.88,132.17,101.88,306.15
1392,0.0621,-0.6386,-0.6185,-0.4537,299.65,132.2,101.79,304.59
1393,0.0615,-0.6392,-0.6179,-0.4537,299.46,132.26,101.7,307.44
1394,0.061,-0.6401,-0.6169,-0.4537,299.25,132.31,101.57,308.41
1395,0.0606,-0.641,-0.6162,-0.4537,299.08,132.38,101.44,311.74
1396,0.06,-0.6418,-0.6155,-0.4536,298.9,132.45,101.32,308.35
1397,0.0592,-0.6425,-0.6147,-0.4537,298.64,132.53,101.23,306.71
1398,0.0582,-0.6431,-0.6139,-0.454,298.33,132.58,101.15,304.74
1399,0.0576,-0.6436,-0.613,-0.4546,298.06,132.56,101.09,303.92
1400,0.0571,-0.6442,-0.6121,-0.455,297.83,132.57,101.0,307.52
1401,0.0571,-0.6448,-0.6114,-0.4552,297.71,132.58,100.91,308.54
1402,0.0587,-0.6439,-0.6105,-0.4574,297.69,132.18,101.05,304.51
1403,0.0629,-0.6399,-0.6097,-0.4635,297.82,131.06,101.67,309.65
1404,0.066,-0.6374,-0.6087,-0.4678,297.87,130.26,102.05,306.87
1405,0.0651,-0.6384,-0.6078,-0.4678,297.59,130.36,101.9,306.3
1406,0.0639,-0.6402,-0.6073,-0.4661,297.44,130.7,101.62,306.79
1407,0.0633,-0.6416,-0.6069,-0.4647,297.4,130.95,101.39,304.51
1408,0.064,-0.6418,-0.6063,-0.4652,297.41,130.86,101.35,306.71
1409,0.0639,-0.6419,-0.6055,-0.4661,297.2,130.76,101.33,305.78
1410,0.0629,-0.6427,-0.6047,-0.4661,296.91,130.86,101.23,301.24
1411,0.0615,-0.6439,-0.604,-0.4656,296.63,131.06,101.05,308.41
1412,0.0598,-0.6451,-0.6034,-0.4649,296.29,131.29,100.89,305.12
1413,0.0575,-0.6469,-0.6027,-0.4637,295.9,131.65,100.64,302.5
1414,0.0553,-0.6487,-0.6019,-0.4625,295.52,132.01,100.37,302.91
1415,0.054,-0.6499,-0.6013,-0.4617,295.29,132.25,100.18,305.67
1416,0.0529,-0.6512,-0.6008,-0.4607,295.12,132.48,99.98,300.26
1417,0.0519,-0.6527,-0.6002,-0.4595,294.98,132.74,99.74,304.59
1418,0.0512,-0.6539,-0.5995,-0.4587,294.83,132.93,99.53,305.16
1419,0.0508,-0.6547,-0.5986,-0.4588,294.64,132.98,99.41,299.49
1420,0.0502,-0.6551,-0.5977,-0.4595,294.37,132.96,99.36,306.03
1421,0.0493,-0.6556,-0.5967,-0.4601,294.03,132.96,99.3,306.11
1422,0.0485,-0.6562,-0.5959,-0.4604,293.76,133.02,99.22,304.01
1423,0.0477,-0.657,-0.5951,-0.4603,293.53,133.12,99.08,303.33
1424,0.0469,-0.6579,-0.5945,-0.46,293.35,133.25,98.95,305.16
1425,0.0463,-0.6588,-0.5938,-0.4596,293.18,133.37,98.81,305.16
1426,0.0459,-0.6595,-0.5929,-0.4597,293.0,133.42,98.68,306.32
1427,0.0455,-0.6603,-0.5921,-0.4597,292.82,133.49,98.55,303.8
1428,0.0448,-0.661,-0.5913,-0.4598,292.59,133.55,98.44,303.58
1429,0.0442,-0.6618,-0.5904,-0.4599,292.37,133.62,98.31,302.41
1430,0.0435,-0.6626,-0.5894,-0.46,292.12,133.68,98.18,301.11
1431,0.0429,-0.6635,-0.5885,-0.4599,291.9,133.78,98.03,307.87
1432,0.0424,-0.6643,-0.5877,-0.46,291.71,133.83,97.91,303.35
1433,0.0417,-0.6651,-0.5869,-0.4599,291.51,133.94,97.78,305.78
1434,0.041,-0.6658,-0.586,-0.46,291.26,134.01,97.66,306.71
1435,0.0407,-0.6666,-0.5851,-0.4601,291.09,134.04,97.53,304.14
1436,0.0402,-0.6674,-0.5842,-0.4601,290.89,134.13,97.39,303.58
1437,0.0397,-0.6686,-0.5832,-0.4595,290.75,134.28,97.17,305.74
1438,0.0389,-0.6694,-0.5824,-0.4596,290.49,134.36,97.05,306.79
1439,0.0381,-0.6694,-0.5812,-0.4611,290.07,134.25,97.07,301.18
1440,0.0373,-0.6702,-0.5802,-0.4614,289.78,134.31,96.95,304.59
1441,0.0369,-0.6711,-0.5793,-0.4611,289.63,134.42,96.78,307.26
1442,0.0369,-0.6723,-0.5786,-0.4604,289.61,134.56,96.56,302.91
1443,0.0365,-0.6734,-0.5778,-0.4598,289.52,134.71,96.36,306.03
1444,0.0361,-0.6741,-0.5768,-0.4599,289.31,134.76,96.23,305.2
1445,0.0355,-0.6747,-0.5757,-0.4606,289.01,134.75,96.14,306.95
1446,0.035,-0.6752,-0.5745,-0.4613,288.71,134.74,96.05,305.88
1447,0.0345,-0.6758,-0.5735,-0.4617,288.46,134.75,95.96,302.5
1448,0.0337,-0.6764,-0.5725,-0.4621,288.16,134.79,95.86,306.87
1449,0.0329,-0.6772,-0.5716,-0.4621,287.93,134.89,95.72,307.94
1450,0.0325,-0.678,-0.5706,-0.4622,287.74,134.95,95.57,308.13
1451,0.0319,-0.6789,-0.5696,-0.4622,287.51,135.05,95.42,302.18
1452,0.0311,-0.68,-0.5687,-0.4617,287.32,135.21,95.22,307.04
1453,0.0304,-0.6812,-0.5679,-0.4611,287.18,135.4,95.01,303.92
1454,0.0301,-0.6822,-0.567,-0.4607,287.06,135.51,94.81,308.35
1455,0.03,-0.6828,-0.5658,-0.4612,286.85,135.5,94.69,306.23
1456,0.0294,-0.6835,-0.5646,-0.4618,286.55,135.51,94.58,305.58
1457,0.0286,-0.6839,-0.5635,-0.4625,286.21,135.51,94.5,306.15
1458,0.0281,-0.6844,-0.5624,-0.4631,285.93,135.51,94.42,307.74
1459,0.0276,-0.685,-0.5614,-0.4635,285.68,135.53,94.32,307.87
1460,0.0267,-0.6859,-0.5606,-0.4632,285.47,135.68,94.15,307.74
1461,0.0261,-0.687,-0.5597,-0.4626,285.34,135.86,93.94,305.2
1462,0.0259,-0.6878,-0.5588,-0.4625,285.22,135.93,93.78,306.23
1463,0.0258,-0.6886,-0.5579,-0.4626,285.07,135.97,93.64,310.96
1464,0.0253,-0.6893,-0.5568,-0.4627,284.86,136.04,93.5,302.92
1465,0.0249,-0.69,-0.556,-0.4627,284.69,136.11,93.36,306.59
1466,0.0243,-0.6908,-0.555,-0.4628,284.47,136.19,93.22,306.11
1467,0.0238,-0.6916,-0.5541,-0.4628,284.27,136.27,93.08,308.54
1468,0.0233,-0.6924,-0.5531,-0.4627,284.09,136.36,92.92,303.57
1469,0.0226,-0.6931,-0.5523,-0.4626,283.9,136.47,92.78,303.58
1470,0.0221,-0.6937,-0.5514,-0.4628,283.69,136.53,92.66,306.32
1471,0.0215,-0.6943,-0.5504,-0.4631,283.46,136.57,92.55,304.7
1472,0.021,-0.6948,-0.5496,-0.4635,283.23,136.6,92.46,306.32
1473,0.0208,-0.6958,-0.5487,-0.4631,283.14,136.72,92.26,304.05
1474,0.0203,-0.6969,-0.5479,-0.4623,283.06,136.9,92.05,301.78
1475,0.0197,-0.697,-0.5471,-0.4631,282.77,136.87,92.02,302.92
1476,0.0188,-0.6976,-0.5461,-0.4635,282.48,136.93,91.92,305.3
1477,0.018,-0.6984,-0.5454,-0.4631,282.31,137.09,91.76,305.22
1478,0.0176,-0.6997,-0.545,-0.4617,282.36,137.36,91.49,310.01
1479,0.0176,-0.701,-0.5444,-0.4603,282.46,137.59,91.21,301.37
1480,0.0177,-0.702,-0.5437,-0.4597,282.46,137.7,91.02,307.25
1481,0.0172,-0.7025,-0.5428,-0.4599,282.25,137.75,90.91,306.79
1482,0.0166,-0.703,-0.542,-0.4602,282.04,137.8,90.82,303.8
1483,0.0158,-0.7038,-0.5414,-0.4597,281.92,137.96,90.66,303.15
1484,0.015,-0.7046,-0.5409,-0.4591,281.78,138.15,90.49,307.44
1485,0.0141,-0.7054,-0.5402,-0.4586,281.64,138.32,90.32,305.88
1486,0.0133,-0.7063,-0.5396,-0.458,281.51,138.51,90.14,301.04
1487,0.0124,-0.707,-0.5391,-0.4575,281.36,138.68,90.0,305.16
1488,0.0119,-0.7078,-0.5387,-0.4569,281.32,138.83,89.84,306.8
1489,0.0117,-0.7087,-0.538,-0.4562,281.31,138.98,89.65,305.18
1490,0.0114,-0.7095,-0.5373,-0.4558,281.22,139.1,89.47,308.54
1491,0.0108,-0.7102,-0.5365,-0.4557,281.06,139.21,89.33,303.21
1492,0.0098,-0.7107,-0.5356,-0.4559,280.77,139.31,89.22,305.16
1493,0.0086,-0.7111,-0.5349,-0.4563,280.46,139.39,89.14,303.33
1494,0.0076,-0.7117,-0.534,-0.4564,280.19,139.49,89.03,304.49
1495,0.0068,-0.7122,-0.5333,-0.4564,280.0,139.6,88.91,303.57
1496,0.0061,-0.7129,-0.5326,-0.4562,279.82,139.72,88.77,307.91
1497,0.0054,-0.7135,-0.5319,-0.456,279.67,139.84,88.63,301.76
1498,0.005,-0.7141,-0.5311,-0.4561,279.51,139.9,88.51,305.54
1499,0.0044,-0.7146,-0.5303,-0.4561,279.33,139.99,88.39,302.81
1500,0.0038,-0.7153,-0.5295,-0.456,279.18,140.1,88.25,308.38
1501,0.0033,-0.716,-0.5287,-0.4559,279.02,140.21,88.09,305.12
1502,0.0027,-0.7165,-0.5279,-0.456,278.82,140.28,87.97,305.77
1503,0.0019,-0.7168,-0.5271,-0.4564,278.55,140.32,87.91,303.15
1504,0.0013,-0.7171,-0.526,-0.4572,278.26,140.32,87.84,309.09
1505,0.0007,-0.7174,-0.5252,-0.4577,278.01,140.34,87.77,305.12
1506,0.0003,-0.7181,-0.5242,-0.4577,277.85,140.42,87.62,304.45
1507,-0.0002,-0.7192,-0.5234,-0.457,277.79,140.61,87.39,305.88
1508,-0.0011,-0.7196,-0.5226,-0.4572,277.52,140.71,87.28,305.77
1509,-0.002,-0.7197,-0.5216,-0.4583,277.14,140.67,87.26,305.77
1510,-0.0027,-0.7202,-0.5204,-0.4588,276.85,140.72,87.14,306.23
1511,-0.0029,-0.7209,-0.5194,-0.4588,276.71,140.79,86.97,305.22
1512,-0.0032,-0.7219,-0.5187,-0.4581,276.68,140.95,86.76,306.23
1513,-0.0037,-0.723,-0.5179,-0.4572,276.64,141.17,86.52,306.3
1514,-0.0043,-0.7237,-0.517,-0.4571,276.48,141.29,86.35,305.26
1515,-0.0051,-0.7241,-0.516,-0.4576,276.18,141.34,86.25,304.93
1516,-0.0059,-0.7245,-0.515,-0.458,275.89,141.4,86.15,308.41
1517,-0.0067,-0.7249,-0.5141,-0.4584,275.64,141.46,86.04,304.01
1518,-0.0076,-0.7255,-0.5133,-0.4584,275.42,141.59,85.9,308.54
1519,-0.0084,-0.7262,-0.5124,-0.4583,275.22,141.72,85.74,305.67
1520,-0.0086,-0.7266,-0.5114,-0.4587,275.03,141.75,85.63,304.14
1521,-0.0091,-0.7272,-0.5104,-0.4589,274.82,141.81,85.5,304.05
1522,-0.0098,-0.728,-0.5097,-0.4584,274.71,141.99,85.31,308.02
1523,-0.0104,-0.729,-0.5088,-0.4579,274.6,142.17,85.08,299.7
1524,-0.0107,-0.7297,-0.5079,-0.4576,274.51,142.28,84.91,303.04
1525,-0.011,-0.7302,-0.5069,-0.458,274.31,142.31,84.8,302.18
1526,-0.0117,-0.7305,-0.5059,-0.4587,274.01,142.33,84.71,304.7
1527,-0.0126,-0.7308,-0.5048,-0.4593,273.69,142.37,84.62,304.49
1528,-0.0131,-0.7312,-0.5039,-0.4597,273.46,142.42,84.52,302.74
1529,-0.0137,-0.7317,-0.5031,-0.4597,273.29,142.53,84.38,308.02
1530,-0.0142,-0.7324,-0.5023,-0.4594,273.19,142.65,84.21,308.2
1531,-0.0147,-0.7331,-0.5015,-0.4592,273.06,142.77,84.05,306.71
1532,-0.0153,-0.7339,-0.5005,-0.459,272.9,142.92,83.85,307.13
1533,-0.0157,-0.7345,-0.4997,-0.4589,272.78,143.02,83.69,305.22
1534,-0.0161,-0.7352,-0.4987,-0.4589,272.62,143.11,83.53,304.03
1535,-0.0167,-0.7357,-0.4977,-0.4591,272.39,143.19,83.4,303.93
1536,-0.0176,-0.7361,-0.4967,-0.4594,272.12,143.28,83.27,304.49
1537,-0.0182,-0.7367,-0.4958,-0.4595,271.93,143.38,83.12,303.58
1538,-0.0187,-0.7374,-0.4948,-0.4594,271.78,143.5,82.95,302.88
1539,-0.0195,-0.738,-0.494,-0.4593,271.6,143.63,82.79,307.18
1540,-0.0202,-0.7384,-0.4931,-0.4595,271.37,143.72,82.66,302.36
1541,-0.0205,-0.7389,-0.492,-0.4598,271.19,143.77,82.53,303.45
1542,-0.0208,-0.7394,-0.4911,-0.4601,271.01,143.83,82.39,307.04
1543,-0.0211,-0.7402,-0.49,-0.4598,270.91,143.95,82.19,306.03
1544,-0.022,-0.741,-0.4892,-0.4594,270.76,144.14,81.99,304.03
1545,-0.0229,-0.7409,-0.4882,-0.4607,270.34,144.1,81.99,305.12
1546,-0.024,-0.7413,-0.4871,-0.4612,270.0,144.2,81.86,306.03
1547,-0.0246,-0.7421,-0.4861,-0.4609,269.86,144.35,81.65,302.88
1548,-0.0247,-0.743,-0.4852,-0.4603,269.86,144.51,81.41,307.74
1549,-0.0246,-0.7441,-0.4843,-0.4595,269.9,144.68,81.17,301.18
1550,-0.0249,-0.7449,-0.4835,-0.459,269.87,144.84,80.95,306.95
1551,-0.0254,-0.7452,-0.4825,-0.4595,269.62,144.87,80.85,308.42
1552,-0.026,-0.7456,-0.4816,-0.4599,269.4,144.92,80.74,304.55
1553,-0.0265,-0.7461,-0.4806,-0.46,269.22,145.02,80.59,310.33
1554,-0.0272,-0.7467,-0.4797,-0.4601,269.01,145.14,80.44,306.03
1555,-0.0279,-0.7471,-0.4786,-0.4605,268.75,145.21,80.31,305.69
1556,-0.0284,-0.7477,-0.4775,-0.4606,268.57,145.3,80.13,301.11
1557,-0.0288,-0.7482,-0.4764,-0.4608,268.39,145.38,79.98,304.7
1558,-0.029,-0.7489,-0.4755,-0.4607,268.29,145.49,79.8,304.59
1559,-0.0294,-0.7499,-0.4745,-0.4601,268.24,145.67,79.55,309.65
1560,-0.0297,-0.7507,-0.4735,-0.4598,268.15,145.82,79.32,308.47
1561,-0.03,-0.7512,-0.4724,-0.46,267.97,145.89,79.17,305.11
1562,-0.0305,-0.7517,-0.4712,-0.4604,267.74,145.94,79.03,305.16
1563,-0.0312,-0.7519,-0.4701,-0.4612,267.42,145.96,78.94,306.25
1564,-0.0319,-0.7522,-0.4689,-0.4619,267.11,146.02,78.82,306.71
1565,-0.0324,-0.7526,-0.4679,-0.4621,266.92,146.09,78.68,306.3
1566,-0.0329,-0.7533,-0.4669,-0.4619,266.78,146.24,78.48,304.49
1567,-0.0335,-0.754,-0.466,-0.4617,266.65,146.39,78.29,308.54
1568,-0.0339,-0.7548,-0.465,-0.4615,266.53,146.53,78.08,305.69
1569,-0.034,-0.7553,-0.4639,-0.4617,266.39,146.59,77.91,309.15
1570,-0.0344,-0.7559,-0.4629,-0.4617,266.25,146.69,77.74,303.45
1571,-0.0348,-0.7564,-0.4618,-0.4619,266.07,146.77,77.59,302.44
1572,-0.0353,-0.757,-0.4608,-0.462,265.9,146.87,77.42,305.69
1573,-0.0358,-0.7575,-0.4598,-0.4621,265.72,146.98,77.25,305.18
1574,-0.0365,-0.758,-0.4588,-0.4622,265.52,147.1,77.09,308.79
1575,-0.037,-0.7585,-0.4577,-0.4623,265.34,147.2,76.91,307.94
1576,-0.0374,-0.759,-0.4567,-0.4625,265.18,147.29,76.76,305.12
1577,-0.038,-0.7595,-0.4558,-0.4625,265.02,147.41,76.6,302.92
1578,-0.0382,-0.7605,-0.4547,-0.462,264.97,147.58,76.34,304.55
1579,-0.0387,-0.7611,-0.4537,-0.4619,264.83,147.72,76.15,306.71
1580,-0.0394,-0.7611,-0.4527,-0.4629,264.48,147.71,76.1,307.74
1581,-0.0402,-0.7614,-0.4516,-0.4633,264.22,147.8,75.95,307.94
1582,-0.0408,-0.7621,-0.4506,-0.4632,264.07,147.96,75.75,307.91
1583,-0.041,-0.763,-0.4497,-0.4625,264.07,148.14,75.5,305.77
1584,-0.0411,-0.7641,-0.4488,-0.4616,264.15,148.36,75.21,304.55
1585,-0.0414,-0.7649,-0.4479,-0.4612,264.1,148.52,74.99,301.37
1586,-0.0419,-0.7653,-0.4469,-0.4615,263.9,148.6,74.85,302.81
1587,-0.0425,-0.7656,-0.4457,-0.462,263.64,148.66,74.71,308.41
1588,-0.0431,-0.7661,-0.4447,-0.4621,263.46,148.79,74.54,305.71
1589,-0.044,-0.7666,-0.4439,-0.4618,263.31,148.98,74.34,307.81
1590,-0.0446,-0.7673,-0.4432,-0.4614,263.24,149.16,74.15,300.83
1591,-0.0451,-0.768,-0.4423,-0.461,263.18,149.33,73.94,304.62
1592,-0.0459,-0.7685,-0.4415,-0.4608,263.04,149.5,73.75,310.43
1593,-0.0465,-0.7692,-0.4408,-0.4603,262.98,149.7,73.55,303.92
1594,-0.0467,-0.7701,-0.44,-0.4595,263.01,149.89,73.3,301.36
1595,-0.0467,-0.7709,-0.4392,-0.4589,263.07,150.05,73.07,303.92
1596,-0.047,-0.7715,-0.4383,-0.4587,262.99,150.17,72.89,304.1
1597,-0.0476,-0.772,-0.4375,-0.4586,262.87,150.31,72.72,309.04
1598,-0.0485,-0.7725,-0.4368,-0.4585,262.71,150.47,72.56,304.67
1599,-0.0494,-0.7729,-0.4361,-0.4583,262.56,150.65,72.39,307.91
1600,-0.0502,-0.7736,-0.4354,-0.4576,262.52,150.89,72.16,306.95
1601,-0.0508,-0.7744,-0.4347,-0.4569,262.5,151.12,71.93,304.18
1602,-0.0513,-0.7752,-0.4341,-0.4561,262.53,151.33,71.71,305.12
1603,-0.0519,-0.7758,-0.4335,-0.4555,262.51,151.52,71.5,302.41
1604,-0.0524,-0.7765,-0.4327,-0.4551,262.45,151.7,71.3,303.58
1605,-0.053,-0.777,-0.4318,-0.4549,262.35,151.85,71.11,304.59
1606,-0.0537,-0.7774,-0.4311,-0.4548,262.22,152.0,70.95,303.58
1607,-0.0546,-0.7779,-0.4304,-0.4546,262.07,152.19,70.77,306.8
1608,-0.0555,-0.7782,-0.4296,-0.4547,261.87,152.34,70.61,305.02
1609,-0.0563,-0.7787,-0.4286,-0.4547,261.71,152.49,70.43,302.05
1610,-0.0571,-0.7792,-0.4278,-0.4546,261.55,152.66,70.25,306.03
1611,-0.0573,-0.78,-0.4269,-0.4539,261.59,152.85,70.01,307.91
1612,-0.058,-0.7808,-0.4261,-0.4532,261.57,153.09,69.75,305.96
1613,-0.0589,-0.7807,-0.4254,-0.454,261.26,153.13,69.7,303.15
1614,-0.0599,-0.7809,-0.4242,-0.4546,260.93,153.24,69.55,307.91
1615,-0.0605,-0.7813,-0.4232,-0.4548,260.76,153.36,69.38,308.13
1616,-0.0607,-0.782,-0.4224,-0.4543,260.77,153.52,69.17,308.41
1617,-0.0607,-0.7829,-0.4217,-0.4534,260.87,153.7,68.93,306.79
1618,-0.0609,-0.7836,-0.4208,-0.4529,260.88,153.87,68.71,304.0
1619,-0.0618,-0.7839,-0.4199,-0.4531,260.66,154.01,68.54,303.57
1620,-0.0629,-0.7841,-0.419,-0.4534,260.4,154.15,68.4,304.03
1621,-0.0635,-0.7845,-0.418,-0.4537,260.2,154.26,68.24,309.32
1622,-0.0644,-0.7848,-0.417,-0.4539,259.99,154.42,68.05,305.09
1623,-0.0654,-0.7851,-0.4162,-0.454,259.78,154.59,67.88,308.26
1624,-0.0661,-0.7857,-0.4151,-0.4539,259.63,154.77,67.66,305.77
1625,-0.0664,-0.7861,-0.4141,-0.454,259.52,154.87,67.49,306.79
1626,-0.0668,-0.7866,-0.4133,-0.4539,259.42,154.98,67.33,305.18
1627,-0.0674,-0.7872,-0.4124,-0.4536,259.35,155.17,67.11,307.81
1628,-0.0678,-0.7879,-0.4114,-0.4531,259.33,155.38,66.85,305.16
1629,-0.0683,-0.7884,-0.4104,-0.4531,259.2,155.51,66.66,306.79
1630,-0.0691,-0.7887,-0.4094,-0.4534,258.97,155.65,66.49,304.49
1631,-0.07,-0.789,-0.4084,-0.4536,258.76,155.79,66.32,306.03
1632,-0.071,-0.7894,-0.4073,-0.4537,258.53,155.99,66.09,305.2
1633,-0.0716,-0.7898,-0.4064,-0.4538,258.4,156.13,65.91,307.37
1634,-0.0719,-0.7902,-0.4055,-0.4539,258.26,156.22,65.77,304.01
1635,-0.0724,-0.7906,-0.4046,-0.4539,258.16,156.36,65.58,305.2
1636,-0.0729,-0.7912,-0.4036,-0.4537,258.07,156.53,65.36,304.45
1637,-0.0733,-0.7917,-0.4027,-0.4535,258.01,156.68,65.17,305.58
1638,-0.0738,-0.7923,-0.4017,-0.4532,257.93,156.86,64.93,305.18
1639,-0.0744,-0.7928,-0.4008,-0.4532,257.82,157.01,64.74,305.58
1640,-0.075,-0.7932,-0.4,-0.4531,257.7,157.16,64.56,301.61
1641,-0.0758,-0.7935,-0.3989,-0.4533,257.5,157.32,64.37,303.47
1642,-0.0765,-0.7937,-0.3978,-0.4538,257.26,157.43,64.2,306.95
1643,-0.077,-0.794,-0.3968,-0.4542,257.06,157.52,64.05,304.55
1644,-0.0774,-0.7946,-0.3956,-0.454,256.99,157.7,63.8,305.77
1645,-0.0778,-0.7955,-0.3946,-0.4532,257.02,157.93,63.51,306.23
1646,-0.0789,-0.7954,-0.3936,-0.4541,256.67,158.04,63.4,304.7
1647,-0.0798,-0.7956,-0.3925,-0.4545,256.4,158.18,63.21,305.77
1648,-0.0804,-0.7962,-0.3912,-0.4545,256.26,158.37,62.95,307.87
1649,-0.0807,-0.7969,-0.3902,-0.454,256.27,158.56,62.7,304.24
1650,-0.0806,-0.7977,-0.3894,-0.4533,256.37,158.71,62.47,304.55
1651,-0.0808,-0.7985,-0.3884,-0.4528,256.4,158.9,62.21,304.51
1652,-0.0813,-0.7988,-0.3874,-0.453,256.25,159.01,62.05,308.41
1653,-0.0819,-0.799,-0.3865,-0.4533,256.06,159.13,61.88,307.18
1654,-0.0825,-0.7994,-0.3855,-0.4533,255.93,159.29,61.68,304.7
1655,-0.0832,-0.8,-0.3844,-0.4531,255.82,159.5,61.44,304.01
1656,-0.0842,-0.8004,-0.3836,-0.4529,255.7,159.72,61.22,305.88
1657,-0.0847,-0.801,-0.3826,-0.4526,255.65,159.9,60.98,303.47
1658,-0.085,-0.8014,-0.3816,-0.4527,255.55,160.03,60.78,308.42
1659,-0.0854,-0.8019,-0.3805,-0.4526,255.45,160.19,60.56,301.24
1660,-0.0858,-0.8026,-0.3796,-0.4521,255.48,160.38,60.33,307.74
1661,-0.0863,-0.8033,-0.3786,-0.4516,255.47,160.59,60.07,306.79
1662,-0.0867,-0.8038,-0.3776,-0.4514,255.41,160.76,59.84,302.92
1663,-0.0872,-0.8042,-0.3766,-0.4515,255.27,160.9,59.64,307.74
1664,-0.0881,-0.8044,-0.3755,-0.4518,255.06,161.07,59.44,304.03
1665,-0.0889,-0.8047,-0.3745,-0.452,254.87,161.25,59.23,306.95
1666,-0.0896,-0.8051,-0.3734,-0.4521,254.72,161.43,59.01,306.15
1667,-0.0902,-0.8056,-0.3724,-0.4518,254.65,161.62,58.78,306.32
1668,-0.0909,-0.8062,-0.3715,-0.4515,254.59,161.84,58.53,309.76
1669,-0.0914,-0.8067,-0.3705,-0.4513,254.54,162.02,58.31,307.52
1670,-0.0918,-0.807,-0.3695,-0.4513,254.44,162.16,58.11,309.26
1671,-0.0922,-0.8076,-0.3686,-0.4511,254.4,162.32,57.89,305.18
1672,-0.0928,-0.808,-0.3676,-0.451,254.3,162.5,57.67,305.88
1673,-0.0935,-0.8084,-0.3665,-0.451,254.17,162.69,57.44,306.79
1674,-0.0944,-0.8087,-0.3656,-0.451,254.03,162.89,57.22,306.15
1675,-0.095,-0.809,-0.3646,-0.4511,253.89,163.04,57.03,306.59
1676,-0.0954,-0.8093,-0.3635,-0.4514,253.72,163.17,56.84,305.69
1677,-0.096,-0.8097,-0.3626,-0.4514,253.63,163.34,56.63,306.15
1678,-0.0963,-0.8106,-0.3614,-0.4506,253.71,163.57,56.32,303.92
1679,-0.0971,-0.8109,-0.3604,-0.4506,253.59,163.78,56.09,306.23
1680,-0.0981,-0.8106,-0.3595,-0.4518,253.17,163.85,56.0,304.62
1681,-0.0989,-0.8111,-0.3582,-0.4517,253.04,164.09,55.71,303.47
1682,-0.0992,-0.8118,-0.3571,-0.4513,253.05,164.28,55.44,303.47
1683,-0.0991,-0.8127,-0.3561,-0.4505,253.2,164.46,55.17,305.3
1684,-0.099,-0.8135,-0.3549,-0.45,253.29,164.62,54.91,305.84
1685,-0.0995,-0.8137,-0.3538,-0.4503,253.13,164.74,54.72,305.78
1686,-0.1003,-0.8137,-0.3527,-0.451,252.84,164.88,54.53,305.58
1687,-0.1009,-0.814,-0.3515,-0.4512,252.67,165.04,54.31,305.58
1688,-0.1014,-0.8143,-0.3505,-0.4514,252.53,165.19,54.11,300.9
1689,-0.102,-0.8147,-0.3493,-0.4515,252.4,165.37,53.87,300.05
1690,-0.1026,-0.8152,-0.3484,-0.4513,252.36,165.57,53.64,304.51
1691,-0.1027,-0.8157,-0.3473,-0.4511,252.35,165.71,53.41,306.15
1692,-0.1031,-0.8161,-0.3463,-0.4511,252.27,165.85,53.21,300.83
1693,-0.1036,-0.8165,-0.3454,-0.4508,252.25,166.03,52.98,307.54
1694,-0.1039,-0.8172,-0.3444,-0.4504,252.27,166.23,52.72,304.0
1695,-0.104,-0.8177,-0.3432,-0.4502,252.26,166.37,52.49,301.76
1696,-0.1043,-0.8181,-0.3422,-0.4503,252.17,166.5,52.29,303.45
1697,-0.105,-0.8182,-0.3411,-0.4507,251.97,166.66,52.08,306.03
1698,-0.1059,-0.8185,-0.3399,-0.4509,251.78,166.87,51.83,306.23
1699,-0.1064,-0.8187,-0.3388,-0.4513,251.61,167.02,51.62,302.88
1700,-0.1069,-0.8191,-0.3377,-0.4512,251.53,167.18,51.4,302.44
1701,-0.1074,-0.8196,-0.3367,-0.451,251.5,167.38,51.15,305.68
1702,-0.1079,-0.8202,-0.3357,-0.4506,251.51,167.6,50.89,306.95
1703,-0.1083,-0.8206,-0.3345,-0.4505,251.44,167.77,50.64,303.8
1704,-0.1086,-0.821,-0.3335,-0.4505,251.39,167.92,50.43,304.01
1705,-0.1089,-0.8215,-0.3323,-0.4504,251.35,168.08,50.19,304.65
1706,-0.1095,-0.822,-0.3312,-0.4503,251.28,168.29,49.92,305.3
1707,-0.1102,-0.8223,-0.3302,-0.4502,251.19,168.5,49.68,304.51
1708,-0.1109,-0.8227,-0.3293,-0.45,251.13,168.7,49.45,306.11
1709,-0.1115,-0.8229,-0.3281,-0.4502,250.99,168.89,49.21,306.64
1710,-0.1121,-0.8233,-0.327,-0.4503,250.89,169.07,48.97,304.05
1711,-0.1127,-0.8236,-0.3259,-0.4502,250.8,169.27,48.73,308.2
1712,-0.1128,-0.8244,-0.3247,-0.4496,250.91,169.47,48.44,308.73
1713,-0.1132,-0.8249,-0.3239,-0.4492,250.94,169.65,48.21,302.26
1714,-0.1142,-0.8248,-0.3229,-0.4498,250.67,169.83,48.02,306.95
1715,-0.1149,-0.8251,-0.3218,-0.45,250.52,170.03,47.79,305.88
1716,-0.1156,-0.8255,-0.3208,-0.4497,250.49,170.26,47.53,302.81
1717,-0.1156,-0.8265,-0.3197,-0.4487,250.71,170.48,47.22,303.93
1718,-0.1155,-0.8274,-0.3186,-0.4478,250.88,170.65,46.95,306.6
1719,-0.1156,-0.8278,-0.3175,-0.4479,250.83,170.75,46.75,306.11
1720,-0.1163,-0.8278,-0.3164,-0.4484,250.62,170.92,46.54,303.15
1721,-0.1171,-0.8281,-0.3153,-0.4485,250.51,171.14,46.28,307.02
1722,-0.1179,-0.8287,-0.3143,-0.4478,250.55,171.43,45.99,307.94
1723,-0.1186,-0.8292,-0.3134,-0.4474,250.57,171.67,45.73,303.35
1724,-0.1191,-0.8297,-0.3125,-0.4469,250.63,171.87,45.49,302.31
1725,-0.1196,-0.8302,-0.3116,-0.4465,250.63,172.08,45.25,305.77
1726,-0.1204,-0.8305,-0.3108,-0.4463,250.6,172.3,45.02,309.09
1727,-0.1207,-0.8312,-0.31,-0.4454,250.77,172.51,44.78,301.1
1728,-0.1208,-0.8321,-0.3091,-0.4445,250.95,172.69,44.52,305.3
1729,-0.1208,-0.8327,-0.3081,-0.4439,251.07,172.86,44.28,305.2
1730,-0.1212,-0.8331,-0.3071,-0.4438,251.05,173.03,44.07,304.03
1731,-0.1222,-0.8333,-0.3063,-0.4436,250.98,173.25,43.85,305.74
1732,-0.1231,-0.8336,-0.3055,-0.4434,250.93,173.49,43.62,302.76
1733,-0.1238,-0.834,-0.3047,-0.443,250.96,173.72,43.38,301.79
1734,-0.1244,-0.8346,-0.304,-0.4421,251.08,173.96,43.14,304.59
1735,-0.1249,-0.8353,-0.3032,-0.4413,251.22,174.2,42.89,304.0
1736,-0.1254,-0.8359,-0.3023,-0.4406,251.33,174.42,42.63,305.3
1737,-0.1259,-0.8364,-0.3015,-0.4401,251.39,174.61,42.41,308.2
1738,-0.1264,-0.8367,-0.3007,-0.4399,251.39,174.79,42.2,308.35
1739,-0.1271,-0.837,-0.2998,-0.4397,251.34,175.0,41.98,304.0
1740,-0.1281,-0.8373,-0.2991,-0.4394,251.32,175.24,41.76,306.79
1741,-0.1289,-0.8376,-0.298,-0.4392,251.28,175.5,41.48,303.37
1742,-0.1297,-0.8379,-0.297,-0.4392,251.22,175.71,41.24,302.58
1743,-0.1303,-0.8382,-0.2961,-0.439,251.21,175.91,41.02,305.16
1744,-0.1307,-0.8389,-0.295,-0.4383,251.31,176.13,40.73,304.49
1745,-0.1314,-0.8394,-0.2941,-0.4379,251.35,176.36,40.48,305.78
1746,-0.1325,-0.8391,-0.2932,-0.4386,251.07,176.57,40.28,305.86
1747,-0.1334,-0.8393,-0.2921,-0.4388,250.94,176.8,40.02,302.31
1748,-0.1339,-0.8396,-0.291,-0.4388,250.89,176.97,39.8,308.2
1749,-0.134,-0.8402,-0.29,-0.4382,251.02,177.13,39.56,302.38
1750,-0.1338,-0.8409,-0.2891,-0.4375,251.19,177.25,39.36,305.58
1751,-0.1342,-0.8414,-0.2881,-0.4371,251.26,177.43,39.13,301.1
1752,-0.135,-0.8414,-0.2872,-0.4374,251.1,177.63,38.91,308.35
1753,-0.1359,-0.8414,-0.2863,-0.4377,250.95,177.84,38.69,305.86
1754,-0.1367,-0.8417,-0.2852,-0.4377,250.88,178.06,38.44,307.81
1755,-0.1374,-0.842,-0.2844,-0.4374,250.87,178.28,38.21,307.91
1756,-0.1382,-0.8422,-0.2833,-0.4373,250.83,178.51,37.95,302.26
1757,-0.1387,-0.8426,-0.2823,-0.4372,250.81,178.71,37.71,305.86
1758,-0.1394,-0.8427,-0.2813,-0.4374,250.69,178.9,37.48,302.53
1759,-0.1399,-0.843,-0.2804,-0.4373,250.69,179.07,37.28,306.95
1760,-0.1404,-0.8435,-0.2795,-0.4367,250.8,179.29,37.03,304.11
1761,-0.1408,-0.8441,-0.2783,-0.4362,250.87,179.49,36.76,307.44
1762,-0.1414,-0.8444,-0.2773,-0.436,250.86,179.71,36.51,309.75
1763,-0.1422,-0.8445,-0.2762,-0.4362,250.75,179.91,36.27,307.26
1764,-0.1432,-0.8445,-0.275,-0.4367,250.57,180.16,35.99,306.79
1765,-0.144,-0.8445,-0.2739,-0.437,250.42,180.37,35.75,305.58
1766,-0.1447,-0.8448,-0.2729,-0.437,250.38,180.58,35.51,306.3
1767,-0.1452,-0.8453,-0.2719,-0.4364,250.47,180.8,35.25,306.3
1768,-0.1457,-0.8457,-0.2707,-0.4361,250.51,181.01,34.98,306.19
1769,-0.1462,-0.8462,-0.2697,-0.4357,250.59,181.23,34.71,304.14
1770,-0.1467,-0.8466,-0.2686,-0.4354,250.61,181.44,34.47,304.0
1771,-0.1471,-0.8469,-0.2678,-0.4353,250.62,181.59,34.27,305.67
1772,-0.1479,-0.8471,-0.2667,-0.4351,250.61,181.82,34.01,307.65
1773,-0.1486,-0.8472,-0.2656,-0.4354,250.49,182.04,33.76,303.94
1774,-0.1492,-0.8474,-0.2646,-0.4355,250.41,182.23,33.53,308.66
1775,-0.1497,-0.8477,-0.2635,-0.4354,250.4,182.42,33.28,308.73
1776,-0.1499,-0.8484,-0.2623,-0.4346,250.6,182.61,33.01,306.95
1777,-0.1508,-0.8486,-0.2615,-0.4345,250.57,182.85,32.78,303.8
1778,-0.1519,-0.8483,-0.2606,-0.4353,250.31,183.06,32.57,308.42
1779,-0.1525,-0.8487,-0.2593,-0.4351,250.32,183.31,32.27,305.84
1780,-0.1526,-0.849,-0.2582,-0.4349,250.36,183.44,32.04,306.87
1781,-0.1525,-0.8497,-0.2571,-0.4342,250.55,183.57,31.82,307.74
1782,-0.1527,-0.8504,-0.256,-0.4336,250.7,183.73,31.59,306.32
1783,-0.1532,-0.8506,-0.255,-0.4336,250.68,183.91,31.36,304.45
1784,-0.1539,-0.8506,-0.254,-0.4339,250.57,184.12,31.12,304.14
1785,-0.1546,-0.8509,-0.253,-0.4337,250.57,184.34,30.87,304.59
1786,-0.1551,-0.8512,-0.2519,-0.4336,250.58,184.53,30.62,309.17
1787,-0.1559,-0.8514,-0.2511,-0.4334,250.58,184.75,30.4,306.44
1788,-0.1566,-0.8517,-0.25,-0.4332,250.6,184.98,30.14,305.16
1789,-0.157,-0.8519,-0.2489,-0.4332,250.57,185.14,29.91,309.75
1790,-0.1574,-0.8522,-0.2479,-0.4331,250.59,185.32,29.69,304.55
1791,-0.1576,-0.8527,-0.247,-0.4324,250.75,185.48,29.48,305.22
1792,-0.1577,-0.8534,-0.246,-0.4316,250.97,185.62,29.26,307.81
1793,-0.1579,-0.8538,-0.2449,-0.4313,251.04,185.77,29.03,308.45
1794,-0.1584,-0.8539,-0.2439,-0.4315,250.97,185.94,28.81,312.4
1795,-0.1593,-0.8539,-0.2428,-0.4318,250.85,186.19,28.55,304.7
1796,-0.1603,-0.854,-0.2417,-0.4321,250.75,186.43,28.28,306.44
1797,-0.1609,-0.8541,-0.2406,-0.4322,250.69,186.64,28.03,308.02
1798,-0.1613,-0.8545,-0.2395,-0.4319,250.77,186.82,27.79,303.37
1799,-0.1617,-0.8549,-0.2384,-0.4314,250.88,187.02,27.54,304.14
1800,-0.1621,-0.8555,-0.2374,-0.4308,251.03,187.21,27.3,303.07
1801,-0.1626,-0.8558,-0.2363,-0.4306,251.07,187.4,27.06,303.93
1802,-0.1629,-0.8561,-0.2352,-0.4305,251.1,187.56,26.83,302.81
1803,-0.1633,-0.8564,-0.2342,-0.4302,251.15,187.72,26.62,308.31
1804,-0.164,-0.8567,-0.2333,-0.4299,251.22,187.95,26.38,308.79
1805,-0.1648,-0.8568,-0.2322,-0.43,251.16,188.18,26.11,308.31
1806,-0.1653,-0.8568,-0.2312,-0.4302,251.09,188.34,25.9,305.77
1807,-0.1659,-0.8571,-0.2301,-0.4301,251.12,188.54,25.66,307.44
1808,-0.1661,-0.8578,-0.229,-0.4291,251.36,188.72,25.42,308.59
1809,-0.1671,-0.8582,-0.228,-0.4285,251.49,189.0,25.14,306.23
1810,-0.1683,-0.8577,-0.2272,-0.4293,251.22,189.25,24.91,306.03
1811,-0.1691,-0.858,-0.226,-0.4292,251.24,189.5,24.63,306.15
1812,-0.1694,-0.8584,-0.2248,-0.4288,251.34,189.68,24.37,308.54
1813,-0.1693,-0.8591,-0.2238,-0.4281,251.55,189.78,24.18,305.09
1814,-0.1692,-0.8598,-0.2225,-0.4274,251.77,189.89,23.96,307.94
1815,-0.1696,-0.86,-0.2214,-0.4273,251.8,190.07,23.73,304.49
1816,-0.1704,-0.8598,-0.2204,-0.4278,251.64,190.29,23.48,305.88
1817,-0.1712,-0.8598,-0.2193,-0.4282,251.52,190.5,23.23,303.47
1818,-0.1717,-0.8598,-0.2182,-0.4284,251.47,190.69,22.98,306.37
1819,-0.1725,-0.86,-0.2172,-0.4284,251.48,190.91,22.75,310.28
1820,-0.173,-0.8603,-0.216,-0.4281,251.54,191.12,22.49,305.16
1821,-0.1733,-0.8607,-0.2148,-0.4278,251.63,191.29,22.24,303.93
1822,-0.1735,-0.8609,-0.2138,-0.4279,251.63,191.42,22.04,303.47
1823,-0.1739,-0.8611,-0.2127,-0.4278,251.66,191.58,21.81,305.68
1824,-0.174,-0.8616,-0.2115,-0.4274,251.79,191.72,21.58,307.37
1825,-0.1744,-0.8619,-0.2101,-0.4273,251.83,191.91,21.31,306.03
1826,-0.1747,-0.8621,-0.209,-0.4272,251.86,192.07,21.08,304.14
1827,-0.1754,-0.8621,-0.2078,-0.4276,251.77,192.28,20.81,309.47
1828,-0.1761,-0.862,-0.2066,-0.4281,251.65,192.51,20.54,308.02
1829,-0.1769,-0.862,-0.2055,-0.4282,251.62,192.74,20.28,302.18
1830,-0.1774,-0.8622,-0.2044,-0.4282,251.64,192.92,20.04,303.58
1831,-0.1776,-0.8626,-0.2034,-0.4279,251.74,193.06,19.84,304.62
1832,-0.1779,-0.8629,-0.2023,-0.4276,251.83,193.22,19.61,307.74
1833,-0.178,-0.8633,-0.2011,-0.4273,251.92,193.34,19.4,308.98
1834,-0.1784,-0.8636,-0.1999,-0.4272,251.98,193.52,19.15,306.95
1835,-0.1789,-0.8638,-0.1988,-0.4271,252.01,193.7,18.91,302.76
1836,-0.1795,-0.8639,-0.1976,-0.4271,252.04,193.91,18.65,307.54
1837,-0.1802,-0.8641,-0.1965,-0.427,252.06,194.13,18.4,304.0
1838,-0.1809,-0.8642,-0.1953,-0.4271,252.05,194.35,18.13,302.31
1839,-0.1815,-0.8642,-0.1941,-0.4273,252.02,194.57,17.86,302.92
1840,-0.1822,-0.8643,-0.1931,-0.4272,252.03,194.79,17.62,306.71
1841,-0.1824,-0.8647,-0.1918,-0.4268,252.17,194.92,17.39,303.92
1842,-0.1825,-0.8654,-0.1907,-0.426,252.41,195.04,17.19,308.54
1843,-0.1833,-0.8651,-0.1897,-0.4265,252.28,195.27,16.94,306.4
1844,-0.1841,-0.8652,-0.1885,-0.4267,252.25,195.51,16.67,305.77
1845,-0.1848,-0.8654,-0.1874,-0.4264,252.34,195.73,16.42,307.61
1846,-0.1848,-0.866,-0.1862,-0.4256,252.58,195.84,16.21,305.12
1847,-0.1844,-0.8669,-0.1849,-0.4246,252.89,195.89,16.02,308.2
1848,-0.1843,-0.8672,-0.1838,-0.4244,252.99,195.97,15.84,305.77
1849,-0.1849,-0.8671,-0.1828,-0.4249,252.88,196.15,15.62,305.1
1850,-0.1857,-0.867,-0.1817,-0.4251,252.84,196.4,15.35,300.11
1851,-0.1862,-0.8674,-0.1807,-0.4246,252.99,196.57,15.13,303.45
1852,-0.187,-0.8678,-0.1798,-0.4238,253.21,196.79,14.92,307.81
1853,-0.1875,-0.8682,-0.1788,-0.4233,253.35,196.96,14.7,309.15
1854,-0.1879,-0.8684,-0.1777,-0.423,253.46,197.12,14.49,304.7
1855,-0.1887,-0.8685,-0.1767,-0.423,253.47,197.34,14.26,303.47
1856,-0.1893,-0.8687,-0.1757,-0.4226,253.59,197.52,14.04,306.79
1857,-0.1894,-0.8693,-0.1746,-0.4219,253.82,197.63,13.86,305.69
1858,-0.1892,-0.8699,-0.1735,-0.4212,254.05,197.7,13.69,308.47
1859,-0.1893,-0.8703,-0.1726,-0.4207,254.21,197.79,13.53,307.37
1860,-0.1898,-0.8706,-0.1715,-0.4203,254.33,197.95,13.32,305.3
1861,-0.1905,-0.8708,-0.1706,-0.4199,254.44,198.16,13.1,306.79
1862,-0.1911,-0.871,-0.1698,-0.4195,254.56,198.33,12.92,309.32
1863,-0.1918,-0.8713,-0.1689,-0.419,254.71,198.52,12.71,304.51
1864,-0.1924,-0.8718,-0.168,-0.4181,254.96,198.68,12.54,306.96
1865,-0.1928,-0.8722,-0.1671,-0.4174,255.16,198.82,12.37,306.95
1866,-0.193,-0.8726,-0.1663,-0.4167,255.36,198.93,12.21,304.24
1867,-0.1933,-0.8731,-0.1655,-0.4158,255.6,199.04,12.07,304.01
1868,-0.1937,-0.8736,-0.1646,-0.415,255.85,199.16,11.91,309.04
1869,-0.1942,-0.8741,-0.1639,-0.4141,256.1,199.3,11.76,303.59
1870,-0.1947,-0.8743,-0.163,-0.4136,256.24,199.46,11.58,303.92
1871,-0.1954,-0.8744,-0.162,-0.4134,256.32,199.66,11.37,302.95
1872,-0.1962,-0.8746,-0.1613,-0.413,256.43,199.85,11.19,303.58
1873,-0.1964,-0.8752,-0.1602,-0.4121,256.7,199.96,11.01,306.64
1874,-0.1973,-0.8756,-0.1592,-0.4112,256.94,200.17,10.79,305.22
1875,-0.1986,-0.8753,-0.1584,-0.4116,256.86,200.46,10.55,306.03
1876,-0.1996,-0.8753,-0.1574,-0.4114,256.93,200.71,10.3,305.18
1877,-0.2001,-0.8756,-0.1564,-0.411,257.06,200.86,10.11,305.16
1878,-0.1999,-0.8761,-0.1554,-0.4103,257.29,200.9,9.98,309.75
1879,-0.1997,-0.8767,-0.1544,-0.4095,257.55,200.94,9.84,309.09
1880,-0.1999,-0.8772,-0.1532,-0.4088,257.76,201.05,9.66,305.77
1881,-0.2007,-0.8771,-0.1523,-0.4089,257.77,201.24,9.46,304.14
1882,-0.2015,-0.877,-0.1514,-0.4092,257.72,201.45,9.24,303.58
1883,-0.2023,-0.877,-0.1504,-0.4091,257.76,201.67,9.0,303.47
1884,-0.2035,-0.8769,-0.1495,-0.4091,257.8,201.92,8.78,305.16
1885,-0.2043,-0.8769,-0.1487,-0.4089,257.88,202.12,8.58,308.02
1886,-0.205,-0.8769,-0.1475,-0.4089,257.91,202.32,8.34,302.76
1887,-0.2058,-0.8768,-0.1467,-0.4091,257.88,202.53,8.12,306.32
1888,-0.2062,-0.8769,-0.1458,-0.4091,257.94,202.67,7.94,309.85
1889,-0.2065,-0.8773,-0.1447,-0.4083,258.16,202.79,7.78,304.51
1890,-0.2068,-0.8776,-0.1435,-0.4079,258.33,202.92,7.57,305.68
1891,-0.2073,-0.8777,-0.1425,-0.4079,258.36,203.07,7.37,306.3
1892,-0.208,-0.8776,-0.1414,-0.408,258.38,203.28,7.13,306.37
1893,-0.2091,-0.8775,-0.1404,-0.408,258.42,203.53,6.89,304.59
1894,-0.2099,-0.8776,-0.1393,-0.408,258.48,203.75,6.65,302.76
1895,-0.2104,-0.8776,-0.1382,-0.408,258.52,203.92,6.42,303.57
1896,-0.2109,-0.8776,-0.1371,-0.4081,258.56,204.09,6.2,306.3
1897,-0.2117,-0.8777,-0.136,-0.4078,258.66,204.3,5.97,306.95
1898,-0.2122,-0.8779,-0.1348,-0.4076,258.77,204.45,5.77,303.92
1899,-0.2125,-0.8782,-0.1338,-0.4071,258.95,204.55,5.6,306.32
1900,-0.2126,-0.8785,-0.1328,-0.4066,259.12,204.64,5.45,305.18
1901,-0.2133,-0.8787,-0.1319,-0.4062,259.27,204.81,5.26,307.05
1902,-0.2142,-0.8787,-0.1308,-0.4062,259.33,205.04,5.03,306.19
1903,-0.2149,-0.8785,-0.1297,-0.4064,259.32,205.24,4.78,303.69
1904,-0.2155,-0.8785,-0.1287,-0.4065,259.36,205.41,4.58,304.14
1905,-0.2156,-0.8789,-0.1275,-0.406,259.53,205.5,4.4,306.15
1906,-0.2163,-0.8792,-0.1264,-0.4053,259.77,205.68,4.19,304.67
1907,-0.2175,-0.8787,-0.1255,-0.4059,259.65,205.96,3.94,306.3
1908,-0.2183,-0.8787,-0.1244,-0.4058,259.73,206.17,3.71,306.37
1909,-0.2187,-0.8789,-0.1231,-0.4057,259.84,206.32,3.49,300.23
1910,-0.2185,-0.8793,-0.1221,-0.4052,260.02,206.35,3.35,308.02
1911,-0.2184,-0.8798,-0.1209,-0.4045,260.26,206.39,3.21,305.86
1912,-0.2187,-0.8802,-0.1199,-0.4038,260.48,206.49,3.06,302.92
1913,-0.2194,-0.8801,-0.1189,-0.404,260.51,206.67,2.85,307.13
1914,-0.2201,-0.8801,-0.1179,-0.4039,260.58,206.86,2.64,301.79
1915,-0.2205,-0.8802,-0.1169,-0.4038,260.66,206.99,2.45,307.33
1916,-0.2212,-0.8803,-0.1159,-0.4034,260.8,207.16,2.27,304.7
1917,-0.2218,-0.8805,-0.1149,-0.4029,261.0,207.32,2.08,306.72
1918,-0.2221,-0.8807,-0.1137,-0.4026,261.13,207.44,1.89,304.06
1919,-0.2224,-0.8806,-0.1128,-0.4029,261.12,207.56,1.71,306.37
1920,-0.2229,-0.8808,-0.1118,-0.4024,261.29,207.69,1.54,301.11
1921,-0.223,-0.8814,-0.1105,-0.4016,261.58,207.77,1.38,306.15
1922,-0.2231,-0.8817,-0.1094,-0.4011,261.76,207.84,1.22,305.86
1923,-0.2235,-0.8817,-0.1084,-0.4012,261.79,207.98,1.03,303.04
1924,-0.2243,-0.8815,-0.1073,-0.4015,261.78,208.19,0.8,302.53
1925,-0.2254,-0.8812,-0.1062,-0.4018,261.78,208.46,0.52,305.16
1926,-0.2262,-0.8811,-0.1051,-0.4018,261.85,208.66,0.3,305.18
1927,-0.2267,-0.8813,-0.104,-0.4014,262.03,208.79,0.11,306.87
1928,-0.2271,-0.8817,-0.1029,-0.4007,262.26,208.91,359.96,310.56
1929,-0.2274,-0.8819,-0.1019,-0.4001,262.47,209.01,359.8,308.35
1930,-0.228,-0.882,-0.1009,-0.3999,262.58,209.16,359.62,304.7
1931,-0.2284,-0.8821,-0.0999,-0.3997,262.69,209.28,359.45,302.41
1932,-0.2287,-0.8823,-0.0987,-0.3994,262.84,209.39,359.26,305.3
1933,-0.2292,-0.8823,-0.0978,-0.3994,262.88,209.53,359.09,305.1
1934,-0.2298,-0.8824,-0.0967,-0.399,263.05,209.69,358.9,303.47
1935,-0.2304,-0.8824,-0.0957,-0.3989,263.15,209.85,358.7,303.35
1936,-0.2308,-0.8824,-0.0945,-0.3989,263.24,209.98,358.51,303.47
1937,-0.2313,-0.8825,-0.0936,-0.3986,263.36,210.11,358.35,307.05
1938,-0.2315,-0.8829,-0.0923,-0.398,263.59,210.2,358.17,303.35
1939,-0.232,-0.883,-0.0913,-0.3976,263.75,210.34,358.0,308.2
1940,-0.2333,-0.8823,-0.0905,-0.3986,263.58,210.63,357.75,304.14
1941,-0.2341,-0.8823,-0.0893,-0.3984,263.7,210.83,357.51,305.2
1942,-0.2343,-0.8827,-0.088,-0.3978,263.94,210.92,357.34,307.37
1943,-0.234,-0.8832,-0.0869,-0.3971,264.19,210.91,357.23,303.37
1944,-0.234,-0.8837,-0.0855,-0.3963,264.46,210.95,357.08,303.35
1945,-0.2343,-0.8838,-0.0844,-0.3961,264.58,211.07,356.9,306.19
1946,-0.2353,-0.8835,-0.0834,-0.3964,264.6,211.3,356.66,303.92
1947,-0.236,-0.8834,-0.0823,-0.3964,264.67,211.49,356.45,304.59
1948,-0.2366,-0.8834,-0.081,-0.3962,264.81,211.65,356.23,304.72
